ACCELEROMETER X (m/s²),ACCELEROMETER Y (m/s²),ACCELEROMETER Z (m/s²),GRAVITY X (m/s²),GRAVITY Y (m/s²),GRAVITY Z (m/s²),LINEAR ACCELERATION X (m/s²),LINEAR ACCELERATION Y (m/s²),LINEAR ACCELERATION Z (m/s²),GYROSCOPE X (rad/s),GYROSCOPE Y (rad/s),GYROSCOPE Z (rad/s),LIGHT (lux),MAGNETIC FIELD X (μT),MAGNETIC FIELD Y (μT),MAGNETIC FIELD Z (μT),ORIENTATION Z (azimuth °),ORIENTATION X (pitch °),ORIENTATION Y (roll °),PROXIMITY (m),SOUND LEVEL (dB),LOCATION Latitude : ,LOCATION Longitude : ,LOCATION Altitude ( m),LOCATION Altitude-google ( m),LOCATION Speed ( Kmh),LOCATION Accuracy ( m),LOCATION ORIENTATION (°),Satellites in range,Time since start in ms ,YYYY-MO-DD HH-MI-SS_SSS
1.0151,0.0,10.228,0.4758,1.3199,9.7057,-0.033,-1.0145,0.0796,-0.0596,-0.0319,-0.2193,81.0,13.19,-9.81,-50.62,259.4,-8.02,-2.72,5.0,39.521,55.753143,48.743607,212.6,191.0336761,,23.491,,0 / 23,160514,2017-11-09 18:56:06:971
0.9098,0.2011,10.0078,0.4622,1.2745,9.7124,0.2793,-1.0096,-0.3283,0.0256,-0.033,-0.3428,36.0,14.81,-9.0,-49.12,261.28,-7.47,-2.72,5.0,39.486,55.753143,48.743607,212.6,191.0336761,,23.491,,0 / 23,161014,2017-11-09 18:56:07:471
3.3136,0.0,11.6358,-0.7947,1.3089,9.6863,4.4274,-1.4238,1.8634,-0.5845,-1.0806,-0.5227,69.0,14.31,2.0,-49.94,308.87,-10.42,7.43,5.0,42.111,55.753143,48.743607,212.6,191.0336761,,23.491,,0 / 23,161514,2017-11-09 18:56:07:971
0.565,0.6129,9.5098,-0.1068,0.7876,9.7743,0.5094,-0.3505,-0.0392,-0.0011,0.0096,0.1874,105.0,10.06,4.5,-51.56,314.72,-4.61,0.81,5.0,42.064,55.753143,48.743607,212.6,191.0336761,,23.491,,0 / 23,162014,2017-11-09 18:56:08:471
1.0056,0.1149,10.2376,0.065,0.7859,9.7748,0.9735,-0.4056,-0.7646,-0.0948,-0.0011,0.0532,126.0,10.06,3.13,-51.5,309.09,-4.82,-0.2,5.0,41.866,55.753143,48.743607,212.6,191.0336761,,23.491,,0 / 22,162514,2017-11-09 18:56:08:971
0.5938,-0.0766,9.8641,0.1599,0.7569,9.776,0.4359,-0.8257,0.0272,-0.0117,0.0011,-0.0053,216.0,10.13,2.75,-52.81,303.25,-4.43,-0.86,5.0,43.957,55.753143,48.743607,212.6,191.0336761,,23.491,,0 / 22,163014,2017-11-09 18:56:09:471
1.0534,0.2011,10.0556,0.2811,0.7063,9.7771,0.7793,-0.5327,0.2237,0.0511,0.0415,-0.1278,228.0,8.75,1.19,-53.0,294.07,-3.99,-1.57,5.0,46.787,55.753143,48.743607,212.6,191.0336761,,23.491,,0 / 22,163514,2017-11-09 18:56:09:971
0.6225,0.1149,9.9503,0.3166,0.7158,9.7753,0.2897,-0.141,-0.2461,-0.017,0.0043,-0.1682,246.0,6.44,1.38,-52.75,299.0,-4.16,-1.84,5.0,44.103,55.753143,48.743607,212.6,191.0336761,,23.491,,0 / 22,164014,2017-11-09 18:56:10:471
0.8236,0.0766,9.8354,0.3971,0.6446,9.7773,0.3458,-0.645,1.0551,-0.0256,0.0511,0.1299,243.0,6.19,-1.31,-53.44,286.85,-3.77,-2.33,5.0,44.36,55.753143,48.743607,212.6,191.0336761,,23.491,,0 / 22,164514,2017-11-09 18:56:10:971
0.4118,0.2873,9.6151,0.4048,0.6455,9.777,0.0914,0.0637,-0.561,-0.0852,-0.0383,0.0224,249.0,5.63,-1.12,-53.69,287.46,-3.82,-2.34,5.0,45.993,55.753143,48.743607,212.6,191.0336761,,23.491,,0 / 22,165014,2017-11-09 18:56:11:471
0.6704,0.0096,9.6151,0.3829,0.7593,9.7697,0.4681,-0.4299,-0.3287,-0.0735,0.0224,0.0138,276.0,4.44,-2.62,-54.37,279.33,-4.25,-2.2,5.0,43.081,55.753143,48.743607,212.6,191.0336761,,23.491,,0 / 22,165514,2017-11-09 18:56:11:971
0.9577,0.2586,9.9599,0.4485,0.7441,9.768,0.3266,-0.5169,-0.1794,0.0224,0.0341,0.0032,297.0,3.25,-2.62,-54.56,281.02,-4.3,-2.51,5.0,42.595,55.753143,48.743607,212.6,191.0336761,,23.491,,0 / 22,166014,2017-11-09 18:56:12:471
0.5746,0.7087,9.7492,0.5134,0.8443,9.7567,0.1016,-0.4957,-0.2568,-0.0064,-0.0447,-0.05,288.0,1.13,-6.69,-54.31,234.42,-4.49,-3.04,5.0,44.019,55.753143,48.743607,212.6,191.0336761,,23.491,,0 / 22,166514,2017-11-09 18:56:12:971
1.2354,0.1724,9.979,0.6133,0.9543,9.7408,0.521,-0.7633,-0.0643,-0.0021,0.0128,0.0703,288.0,-0.31,-7.31,-54.06,243.09,-5.58,-3.6,5.0,42.42,55.753143,48.743607,212.6,191.0336761,,23.491,,0 / 22,167014,2017-11-09 18:56:13:471
0.1437,0.2969,10.1514,0.7079,1.1056,9.7183,-0.5351,-0.7192,0.272,0.0362,-0.0713,-0.0106,297.0,1.06,-10.81,-54.19,214.78,-6.27,-4.05,5.0,42.701,55.753143,48.743607,212.6,191.0336761,,23.491,,0 / 23,167514,2017-11-09 18:56:13:971
0.3543,-0.1341,9.8928,0.8178,1.3333,9.6811,-0.2844,-1.3,0.0426,0.0607,-0.0213,0.0138,306.0,-0.87,-13.12,-53.12,211.35,-7.81,-4.83,5.0,47.135,55.753143,48.743607,212.6,191.0336761,,23.491,,0 / 23,168014,2017-11-09 18:56:14:471
0.5363,0.2682,10.2951,0.9583,1.6317,9.6223,-0.4076,-1.0817,-0.3374,-0.0458,0.0096,-0.0841,309.0,-0.44,-15.5,-52.75,214.12,-9.4,-5.6,5.0,51.221,55.753143,48.743607,212.6,191.0336761,,23.491,,0 / 23,168514,2017-11-09 18:56:14:971
0.4118,0.0,10.0365,1.0849,1.8009,9.5786,-0.4336,-1.4575,0.236,0.0245,0.0522,-0.1352,309.0,0.75,-18.25,-52.56,221.47,-10.83,-6.4,5.0,55.038,55.753143,48.743607,212.6,191.0336761,,23.491,,0 / 23,169013,2017-11-09 18:56:15:470
0.6704,0.0958,10.7164,1.2082,1.8583,9.5528,-0.7832,-1.5777,0.7353,-0.0735,-0.0096,0.0607,312.0,-0.37,-18.19,-50.69,218.36,-10.92,-7.21,5.0,42.788,55.753143,48.743607,212.6,191.0336761,,23.491,,0 / 23,169513,2017-11-09 18:56:15:970
0.68,0.6225,9.1746,1.3404,1.9095,9.525,-0.9748,-1.2234,-1.0634,0.082,0.0373,-0.0053,303.0,0.06,-19.37,-49.56,216.0,-11.19,-7.85,5.0,45.324,55.753143,48.743607,212.6,191.0336761,,23.491,,0 / 23,170013,2017-11-09 18:56:16:470
0.5842,0.0862,9.9695,1.4799,1.9307,9.5001,-1.1051,-1.7068,0.4772,0.0458,-0.0245,0.0011,255.0,1.13,-20.0,-47.94,219.12,-11.35,-8.85,5.0,51.962,55.753143,48.743607,212.6,191.0336761,,23.491,,0 / 23,170514,2017-11-09 18:56:16:971
1.2354,0.0862,9.2991,1.5444,1.8334,9.5091,-0.6315,-1.4355,0.2199,0.0149,-0.0064,-0.0905,252.0,2.38,-21.06,-44.94,216.54,-10.82,-9.17,5.0,49.382,55.753143,48.743607,212.6,191.0336761,,23.491,,0 / 23,171014,2017-11-09 18:56:17:471
0.6512,0.4884,9.347,1.5787,1.7382,9.5213,-1.1556,-1.512,0.3131,-0.0649,-0.0075,-0.1352,303.0,3.13,-21.5,-43.0,218.01,-10.55,-9.62,5.0,44.0,55.753143,48.743607,212.6,191.0336761,,23.491,,0 / 23,171513,2017-11-09 18:56:17:970
0.0479,0.5363,9.232,1.6177,1.5273,9.5509,-0.7465,-1.2633,0.7337,0.0319,0.0011,0.0905,312.0,3.75,-19.81,-40.75,218.5,-8.96,-9.61,5.0,56.818,55.753143,48.743607,212.6,191.0336761,,23.491,,0 / 23,172013,2017-11-09 18:56:18:470
0.7278,0.0,9.8833,1.5652,1.238,9.6014,-0.9634,-1.1891,0.2806,0.0362,0.0064,0.0011,309.0,3.5,-20.37,-39.06,211.92,-7.49,-9.31,5.0,53.044,55.753143,48.743607,212.6,191.0336761,,23.491,,0 / 23,172514,2017-11-09 18:56:18:971
1.0056,0.4118,9.845,1.3641,0.941,9.6656,-0.3711,-0.5439,0.1191,0.0096,-0.1097,-0.1011,303.0,3.38,-19.44,-37.06,209.01,-5.77,-8.23,5.0,47.685,55.753143,48.743607,212.6,191.0336761,,23.491,,0 / 23,173014,2017-11-09 18:56:19:471
0.6704,0.4597,9.6534,1.2407,0.7846,9.6961,-0.7613,-0.4205,-0.3617,0.017,-0.05,-0.1235,306.0,1.69,-16.5,-35.56,206.55,-4.59,-7.29,5.0,42.061,55.753143,48.743607,212.6,191.0336761,,23.491,,0 / 23,173514,2017-11-09 18:56:19:971
0.1053,0.6704,9.4619,0.9277,0.9701,9.7143,-0.4718,-0.2914,0.0087,0.0075,0.0021,-0.2491,327.0,1.88,-17.44,-33.75,202.23,-5.58,-5.37,5.0,40.575,55.753143,48.743607,212.6,191.0336761,,23.491,,0 / 23,174014,2017-11-09 18:56:20:471
0.1341,0.5076,9.9886,1.1063,0.8242,9.7091,-0.9721,-0.3774,0.2093,-0.0511,-0.0277,0.0916,321.0,0.75,-15.12,-32.5,197.68,-4.79,-6.46,5.0,42.906,55.753143,48.743607,212.6,191.0336761,,23.491,,0 / 23,174514,2017-11-09 18:56:20:971
1.3024,0.4022,9.3853,1.2134,0.6067,9.7123,-0.8006,-0.457,0.3038,-0.0617,-0.0628,0.1011,312.0,-2.5,-13.31,-30.81,189.51,-3.66,-7.09,5.0,46.299,55.753143,48.743607,212.6,191.0336761,,23.491,,0 / 23,175014,2017-11-09 18:56:21:471
0.7757,-0.0096,10.477,1.2865,0.4821,9.7099,-0.5024,-0.3247,0.2442,-0.0447,0.0266,0.1746,303.0,-4.31,-12.25,-29.56,179.86,-2.82,-7.55,5.0,49.561,55.753143,48.743607,212.6,191.0336761,,23.491,,0 / 23,175514,2017-11-09 18:56:21:971
0.6129,0.2011,9.7396,1.3889,0.4519,9.6972,-0.7883,-0.2582,-0.0107,-0.0351,-0.0543,-0.0724,303.0,-5.0,-11.94,-27.75,174.39,-2.63,-8.01,5.0,47.289,55.753143,48.743607,212.6,191.0336761,,23.491,,0 / 23,176014,2017-11-09 18:56:22:471
0.3926,0.3735,9.7875,1.5545,0.3716,9.6755,-0.8763,-0.0598,-0.234,0.0192,-0.0468,-0.1469,300.0,-7.37,-11.5,-26.37,160.97,-2.35,-9.17,5.0,42.934,55.753143,48.743607,212.6,191.0336761,,23.491,,0 / 23,176514,2017-11-09 18:56:22:971
0.8811,0.0766,10.5058,1.6996,0.1963,9.6562,-0.7378,-0.1973,0.3639,0.0415,0.0298,0.0021,300.0,-9.06,-11.81,-24.44,157.74,-1.15,-9.98,5.0,42.867,55.753143,48.743607,212.6,191.0336761,,23.491,,0 / 23,177014,2017-11-09 18:56:23:471
0.8045,0.0958,9.9982,1.6923,0.0238,9.6594,-1.104,0.2058,0.305,0.0053,-0.0149,0.0426,297.0,-11.81,-9.69,-24.69,142.29,-0.33,-9.7,5.0,44.078,55.753143,48.743607,212.6,191.0336761,,23.491,,0 / 23,177514,2017-11-09 18:56:23:971
0.5842,0.1915,10.343,1.5219,-0.114,9.6871,-0.9804,0.3291,0.6025,-0.0149,0.0405,0.05,297.0,-13.94,-9.62,-22.81,132.27,0.59,-9.11,5.0,43.415,55.753143,48.743607,212.6,191.0336761,,23.491,,0 / 23,178013,2017-11-09 18:56:24:470
0.4884,0.2969,10.2376,1.3549,-0.0837,9.7122,-0.6443,0.7744,0.0552,0.0309,-0.0138,-0.0522,297.0,-16.0,-10.12,-22.44,128.73,0.57,-8.05,5.0,45.353,55.753143,48.743607,212.6,191.0336761,,23.491,,0 / 23,178514,2017-11-09 18:56:24:971
0.7374,0.3256,9.6343,1.167,0.0354,9.7368,-0.3888,0.4794,0.0498,0.0106,0.0213,-0.1341,294.0,-16.75,-11.94,-21.56,130.14,-0.06,-6.98,5.0,45.456,55.753143,48.743607,212.6,191.0336761,,23.491,,0 / 23,179014,2017-11-09 18:56:25:471
0.9002,-0.1149,9.4715,0.9556,0.1542,9.7587,-0.0487,0.5314,0.859,-0.0351,0.0224,-0.0128,288.0,-16.06,-13.25,-20.56,132.44,-0.83,-5.64,5.0,42.557,55.753143,48.743607,212.6,191.0336761,,23.491,,0 / 23,179514,2017-11-09 18:56:25:971
0.4693,0.2586,9.5672,0.8081,0.2352,9.7704,-0.3515,0.0184,-0.2608,-0.0373,-0.0106,0.0724,288.0,-16.44,-13.12,-20.69,128.99,-1.28,-4.74,5.0,43.054,55.753143,48.743607,212.6,191.0336761,,23.491,,0 / 23,180014,2017-11-09 18:56:26:471
0.4597,0.5842,9.7205,0.697,0.2971,9.7773,-0.316,0.1743,-0.2967,0.0202,0.0468,-0.2395,285.0,-14.44,-13.94,-20.37,134.65,-1.72,-4.12,5.0,41.371,55.753143,48.743607,212.6,191.0336761,,23.491,,0 / 23,180514,2017-11-09 18:56:26:971
0.7853,0.2586,9.8737,0.7542,0.3058,9.7728,0.4381,-0.3172,0.482,-0.0884,-0.115,-0.3332,291.0,-13.56,-14.87,-20.81,139.11,-1.89,-4.38,5.0,42.786,55.753143,48.743607,212.6,191.0336761,,23.491,,0 / 23,181013,2017-11-09 18:56:27:470
0.431,0.3735,9.8641,0.7864,0.3087,9.7701,-0.1237,0.0341,0.1417,-0.0128,-0.0607,-0.3716,294.0,-12.37,-17.06,-21.0,147.77,-1.8,-4.6,5.0,42.665,55.753143,48.743607,212.6,191.0336761,,23.491,,0 / 23,181513,2017-11-09 18:56:27:970
0.316,0.5267,9.8928,0.8222,0.3463,9.7659,-0.5422,0.0735,-0.2269,0.0266,-0.0149,-0.3258,291.0,-10.06,-18.37,-21.06,151.76,-2.04,-4.69,5.0,44.56,55.753143,48.743607,212.6,191.0336761,,23.491,,0 / 23,182013,2017-11-09 18:56:28:470
1.1205,-0.067,10.3238,0.8906,0.3471,9.7599,0.2716,-0.3392,0.4459,-0.05,-0.0426,-0.3705,291.0,-9.06,-18.87,-20.94,158.84,-1.97,-5.2,5.0,45.867,55.753143,48.743607,212.6,191.0336761,,23.491,,0 / 23,182513,2017-11-09 18:56:28:970
-0.0766,0.7278,9.098,0.8062,0.4216,9.7643,-0.8792,0.3018,-0.7254,0.0703,0.0,-0.477,288.0,-5.87,-21.0,-20.62,168.17,-2.38,-4.84,5.0,40.791,55.753143,48.743607,212.6,191.0336761,,23.491,,0 / 23,183013,2017-11-09 18:56:29:470
0.3065,0.5363,9.6343,0.7549,0.4355,9.7678,-0.455,0.0916,-0.1895,0.0106,-0.0064,-0.4067,288.0,-2.25,-20.87,-21.12,178.84,-2.55,-4.34,5.0,40.494,55.753143,48.743607,212.6,191.0336761,,23.491,,0 / 23,183513,2017-11-09 18:56:29:970
0.68,0.3639,9.2512,0.7314,0.3893,9.7715,0.1276,-0.3717,0.395,0.0415,0.0106,-0.297,285.0,1.81,-20.87,-21.56,190.25,-2.28,-4.28,5.0,45.291,55.753143,48.743607,212.6,191.0336761,,23.491,,0 / 23,184013,2017-11-09 18:56:30:470
0.6895,0.3639,10.1993,0.7012,0.3849,9.7739,-0.0413,0.1233,-0.0393,0.0149,0.0096,-0.4088,282.0,4.69,-20.31,-21.37,198.82,-2.22,-4.01,5.0,41.553,55.753143,48.743607,212.6,191.0336761,,23.491,,0 / 23,184514,2017-11-09 18:56:30:971
0.6608,0.3256,9.9886,0.6686,0.3939,9.7758,0.3045,0.0663,-0.0993,0.0064,-0.0043,-0.2757,90.0,8.38,-18.75,-21.69,207.55,-2.25,-3.87,5.0,39.328,55.753143,48.743607,212.6,191.0336761,,23.491,,0 / 23,185014,2017-11-09 18:56:31:471
0.9768,0.0766,9.2129,0.6451,0.3525,9.779,0.7538,-0.1582,-0.1027,0.0245,-0.1459,-0.2161,111.0,10.56,-17.62,-22.69,215.54,-2.21,-3.84,5.0,39.883,55.753143,48.743607,212.6,191.0336761,,23.491,,0 / 23,185514,2017-11-09 18:56:31:971
-0.3065,0.1915,10.4196,0.8485,0.7936,9.7375,-0.5175,0.2086,0.1031,-0.6154,1.1072,0.3726,63.0,7.81,-19.19,-23.87,213.32,-5.84,-7.08,5.0,40.207,55.753143,48.743607,212.6,191.0336761,,23.491,,0 / 23,186014,2017-11-09 18:56:32:471
1.2354,0.6225,9.596,0.1388,0.7311,9.7783,0.7875,0.0917,-0.8282,0.0362,-0.1544,0.1235,87.0,9.06,-18.81,-21.0,208.13,-4.28,-0.81,5.0,39.054,55.753143,48.743607,212.6,191.0336761,,23.491,,0 / 23,186514,2017-11-09 18:56:32:971
1.2067,0.9194,9.5289,0.7913,0.8997,9.7331,0.1464,-0.0121,-0.18,0.0277,-0.1629,-0.0979,72.0,6.19,-20.25,-18.12,204.42,-4.86,-4.46,5.0,38.946,55.753143,48.743607,212.6,191.0336761,,23.491,,0 / 23,187014,2017-11-09 18:56:33:471
1.6664,0.1532,9.6438,0.909,0.2401,9.7614,0.6257,-0.1433,-0.4185,-0.0692,0.1192,-0.0394,75.0,7.13,-19.25,-19.06,205.21,-1.4,-5.32,5.0,39.638,55.753143,48.743607,212.6,191.0336761,,23.491,,0 / 23,187514,2017-11-09 18:56:33:971
0.6416,0.431,9.3661,0.6534,0.2594,9.7814,-0.3214,-0.0819,0.4233,0.0245,0.0053,0.2108,60.0,7.06,-19.31,-18.44,203.84,-1.48,-3.85,5.0,38.804,55.753143,48.743607,212.6,191.0336761,,23.491,,0 / 23,188014,2017-11-09 18:56:34:471
0.316,0.3735,9.4044,0.5508,0.2496,9.7879,-0.1897,0.2414,0.1139,0.115,-0.0021,0.378,75.0,4.81,-22.25,-18.44,196.33,-1.53,-3.25,5.0,46.642,55.753143,48.743607,212.6,191.0336761,,23.491,,0 / 23,188514,2017-11-09 18:56:34:971
0.3926,0.3735,9.7396,0.5138,0.3019,9.7885,-0.1855,0.0598,0.0442,0.0213,0.0,-0.116,180.0,4.38,-21.44,-18.56,193.15,-1.8,-3.04,5.0,42.766,55.753143,48.743607,212.6,191.0336761,,23.491,,0 / 23,189014,2017-11-09 18:56:35:471
0.7374,0.249,9.8258,0.5937,0.321,9.7833,-0.1261,0.0989,0.3537,-0.0224,-0.0075,-0.2097,273.0,4.75,-20.75,-17.56,196.59,-1.88,-3.47,5.0,46.978,55.753143,48.743607,212.6,191.0336761,,23.491,,0 / 23,189514,2017-11-09 18:56:35:971
0.7757,0.498,9.73,0.6599,0.3579,9.7778,0.5536,-0.1517,0.2807,0.0383,0.0713,-0.2055,306.0,8.06,-20.25,-18.44,205.14,-2.1,-3.76,5.0,45.619,55.753143,48.743607,212.6,191.0336761,,23.491,,0 / 23,190013,2017-11-09 18:56:36:470
0.4597,0.0479,9.6151,0.6309,0.3985,9.7782,-0.0465,0.0624,-0.7095,0.0586,0.0,-0.165,333.0,8.13,-18.31,-16.75,207.67,-2.33,-3.69,5.0,44.634,55.753143,48.743607,212.6,191.0336761,,23.491,,0 / 23,190513,2017-11-09 18:56:36:970
1.0343,0.1532,9.4906,0.6018,0.3599,9.7815,0.2065,-0.112,-0.282,0.0575,0.0256,0.1767,342.0,9.38,-17.87,-16.87,209.92,-2.12,-3.44,5.0,45.684,55.753143,48.743607,212.6,191.0336761,,23.491,,0 / 23,191014,2017-11-09 18:56:37:471
0.9194,0.1149,9.6726,0.5321,0.3861,9.7845,0.3176,-0.1675,0.0582,0.0202,-0.0064,0.1778,351.0,7.63,-18.56,-15.87,203.17,-2.15,-3.18,5.0,45.12,55.753143,48.743607,212.6,191.0336761,,23.491,,0 / 23,191514,2017-11-09 18:56:37:971
0.4693,-0.0287,10.3238,0.5248,0.353,9.7862,0.0873,-0.2929,0.5565,0.0522,-0.0053,0.0224,357.0,6.19,-18.37,-15.87,201.47,-2.08,-3.09,5.0,44.508,55.753143,48.743607,212.6,191.0336761,,23.491,,0 / 23,192013,2017-11-09 18:56:38:470
1.1205,0.249,9.9503,0.585,0.3388,9.7833,-0.2324,-0.0126,-0.47,-0.049,-0.0011,0.0287,363.0,6.63,-18.19,-16.25,201.48,-1.99,-3.4,5.0,44.935,55.753143,48.743607,212.6,191.0336761,,23.491,,0 / 23,192514,2017-11-09 18:56:38:971
0.7566,0.0287,9.9982,0.5444,0.3782,9.7842,-0.0374,-0.3999,0.451,0.0575,-0.0394,-0.1288,366.0,6.88,-16.31,-15.87,207.11,-2.21,-3.18,5.0,41.244,55.753143,48.743607,212.6,191.0336761,,23.491,,0 / 23,193014,2017-11-09 18:56:39:471
0.4597,-0.0479,10.1227,0.5575,0.3511,9.7844,0.2926,-0.2254,-0.069,0.0021,0.0075,0.0234,372.0,6.13,-17.62,-14.81,205.39,-2.1,-3.13,5.0,44.116,55.753143,48.743607,212.6,191.0336761,,23.491,,0 / 23,193514,2017-11-09 18:56:39:971
0.7374,0.3065,10.0365,0.5818,0.3564,9.7828,0.2192,0.0437,0.0797,-0.0043,-0.0181,0.05,375.0,5.38,-17.5,-14.44,199.34,-2.04,-3.28,5.0,41.003,55.753143,48.743607,212.6,191.0336761,,23.491,,0 / 23,194013,2017-11-09 18:56:40:470
0.3256,0.0862,9.7683,0.5631,0.3078,9.7856,-0.2425,-0.2309,-0.0701,-0.0085,0.0149,-0.0128,381.0,5.06,-17.87,-14.12,202.41,-1.92,-3.4,5.0,42.437,55.753143,48.743607,212.6,191.0336761,,23.491,,0 / 23,194514,2017-11-09 18:56:40:971
0.8811,0.1149,9.7013,0.6348,0.3131,9.781,0.0467,-0.177,0.3463,0.0394,0.0245,-0.0138,381.0,5.06,-18.37,-13.12,198.34,-1.83,-3.71,5.0,43.952,55.753143,48.743607,212.6,191.0336761,,23.491,,0 / 23,195013,2017-11-09 18:56:41:470
0.6225,0.747,9.5768,0.6786,0.3216,9.7778,-0.0608,0.4026,-0.258,0.0224,0.0341,-0.0021,384.0,5.19,-17.12,-13.5,199.48,-1.95,-3.83,5.0,42.692,55.753143,48.743607,212.6,191.0336761,,23.491,,0 / 23,195514,2017-11-09 18:56:41:971
0.565,0.1628,10.3717,0.6311,0.3273,9.7808,-0.1697,-0.2273,0.3762,0.0511,-0.0011,0.0277,387.0,5.13,-17.5,-12.5,199.14,-1.91,-3.69,5.0,41.53,55.753143,48.743607,212.6,191.0336761,,23.491,,0 / 23,196014,2017-11-09 18:56:42:471
0.4884,0.4022,9.4715,0.6644,0.3076,9.7792,0.0787,-0.0159,-0.4462,-0.0053,-0.0011,0.0809,390.0,5.38,-18.0,-12.0,201.16,-1.93,-3.95,5.0,45.425,55.753143,48.743607,212.6,191.0336761,,23.491,,0 / 23,196514,2017-11-09 18:56:42:971
0.6704,0.1628,10.2855,0.6141,0.2618,9.7838,0.2521,-0.0469,0.256,0.0075,-0.0117,-0.0011,399.0,5.13,-16.75,-12.19,199.13,-1.62,-3.78,5.0,45.052,55.753143,48.743607,212.6,191.0336761,,23.491,,0 / 23,197014,2017-11-09 18:56:43:471
0.6991,0.2203,9.4332,0.7079,0.3163,9.7759,0.1512,-0.1905,0.1749,-0.0181,-0.0479,0.0011,399.0,4.31,-17.0,-10.56,196.06,-1.82,-4.2,5.0,40.807,55.753143,48.743607,212.6,191.0336761,,23.491,,0 / 23,197514,2017-11-09 18:56:43:971
0.4788,0.2777,9.9024,0.668,0.3414,9.7779,-0.4736,0.2328,0.369,0.0021,0.017,-0.0564,402.0,4.5,-16.62,-9.19,199.89,-1.95,-3.89,5.0,40.427,55.753143,48.743607,212.6,191.0336761,,23.491,,0 / 23,198014,2017-11-09 18:56:44:471
0.6512,0.0383,10.1706,0.6082,0.3241,9.7824,0.1033,-0.1211,-0.0177,-0.0053,0.0149,0.0309,405.0,4.88,-15.06,-8.81,200.66,-1.95,-3.52,5.0,42.023,55.753143,48.743607,212.6,191.0336761,,23.491,,0 / 23,198514,2017-11-09 18:56:44:971
0.4214,0.6895,10.2185,0.5679,0.3499,9.7839,-0.0062,0.0443,0.0397,-0.0213,0.0224,0.0617,408.0,4.44,-14.94,-8.81,197.1,-2.04,-3.32,5.0,41.047,55.753143,48.743607,212.6,191.0336761,,23.491,,0 / 23,199014,2017-11-09 18:56:45:471
0.7278,0.3256,9.9982,0.577,0.3159,9.7845,0.148,-0.142,-0.3723,0.0458,-0.0181,0.0096,411.0,4.56,-14.19,-8.0,198.0,-1.89,-3.37,5.0,44.565,55.753143,48.743607,212.6,191.0336761,,23.491,,0 / 23,199514,2017-11-09 18:56:45:971
0.3352,0.1341,9.7779,0.6385,0.3396,9.7799,-0.0457,-0.2516,0.2396,0.0085,0.0032,-0.0522,411.0,4.38,-12.75,-7.69,199.53,-1.98,-3.74,5.0,43.012,55.753143,48.743607,212.6,191.0336761,,23.491,,0 / 23,200014,2017-11-09 18:56:46:471
0.4214,0.3256,9.9024,0.594,0.4113,9.7799,-0.1529,-0.3251,0.5419,0.0224,-0.0256,-0.0788,414.0,4.94,-12.12,-7.62,205.08,-2.4,-3.36,5.0,42.008,55.753143,48.743607,212.6,191.0336761,,23.491,,0 / 23,200514,2017-11-09 18:56:46:971
0.7853,-0.1628,10.7356,0.616,0.3392,9.7813,-0.3745,0.403,-0.3503,-0.0192,0.0192,0.0798,417.0,4.19,-10.69,-7.94,204.76,-2.05,-3.5,5.0,41.648,55.753143,48.743607,212.6,191.0336761,,23.491,,0 / 23,201014,2017-11-09 18:56:47:471
0.2873,0.6512,9.596,0.6419,0.368,9.7786,0.3622,-0.3587,0.437,0.0075,-0.0351,-0.0298,420.0,4.56,-10.62,-8.69,207.61,-2.29,-3.69,5.0,41.093,55.753143,48.743607,212.6,191.0336761,,23.491,,0 / 23,201513,2017-11-09 18:56:47:970
0.4693,0.7949,9.0309,0.6477,0.3452,9.7791,0.295,0.033,0.141,0.0319,-0.0415,-0.0351,423.0,4.56,-9.12,-9.62,213.01,-1.94,-3.68,5.0,49.081,55.753143,48.743607,212.6,191.0336761,,23.491,,0 / 23,202013,2017-11-09 18:56:48:470
0.7087,0.3543,9.73,0.6339,0.3448,9.78,0.2361,-0.0208,-0.1523,-0.017,0.0351,-0.0213,423.0,4.25,-8.75,-8.75,208.17,-2.0,-3.69,5.0,43.794,55.753143,48.743607,212.6,191.0336761,,23.491,,0 / 23,202514,2017-11-09 18:56:48:971
0.6321,0.1053,10.4291,0.6231,0.345,9.7807,-0.4009,-0.3316,-0.1046,0.0351,0.0511,-0.0011,429.0,4.88,-9.31,-9.87,213.16,-2.1,-3.76,5.0,46.685,55.753143,48.743607,212.6,191.0336761,,23.491,,0 / 23,203014,2017-11-09 18:56:49:471
0.6704,0.4501,9.6055,0.5961,0.3422,9.7825,0.0185,0.1561,-0.116,0.0043,0.0064,-0.0011,432.0,4.5,-7.94,-10.62,216.52,-1.9,-3.49,5.0,47.025,55.753143,48.743607,212.6,191.0336761,,23.491,,0 / 23,203514,2017-11-09 18:56:49:971
0.747,0.3639,9.4236,0.5552,0.3267,9.7854,-0.1897,-0.0568,0.3707,-0.0351,0.0043,0.0341,435.0,4.38,-8.37,-11.31,211.15,-1.91,-3.25,5.0,44.119,55.753143,48.743607,212.6,191.0336761,,23.491,,0 / 23,204014,2017-11-09 18:56:50:471
0.5076,0.5076,9.5481,0.5824,0.3063,9.7845,-0.0215,-0.0188,-0.0398,-0.0596,-0.0277,-0.0458,441.0,3.94,-8.5,-11.5,208.15,-1.73,-3.37,5.0,45.597,55.753143,48.743607,212.6,191.0336761,,23.491,,0 / 23,204514,2017-11-09 18:56:50:971
0.5267,0.5555,9.1075,0.6211,0.3458,9.7808,0.0816,0.2882,-0.3783,0.0096,0.0043,-0.0745,441.0,4.56,-8.5,-12.19,217.23,-2.01,-3.7,5.0,47.453,55.753143,48.743607,212.6,191.0336761,,23.491,,0 / 23,205014,2017-11-09 18:56:51:471
0.7087,0.3639,9.8067,0.5846,0.3589,9.7826,0.079,0.0412,0.0015,-0.0096,-0.0021,-0.082,444.0,4.13,-8.62,-12.0,209.0,-2.02,-3.65,5.0,42.031,55.753143,48.743607,212.6,191.0336761,,23.491,,0 / 23,205514,2017-11-09 18:56:51:971
0.68,-0.0096,10.2568,0.5421,0.3083,9.7867,-0.3292,0.1018,0.2424,0.0596,0.0383,0.0586,450.0,3.75,-8.31,-12.62,211.86,-1.81,-3.2,5.0,45.005,55.753143,48.743607,212.6,191.0336761,,23.491,,0 / 23,206014,2017-11-09 18:56:52:471
0.4501,0.3352,9.7205,0.5556,0.3181,9.7857,-0.3778,0.1772,0.0276,-0.0607,-0.0224,0.0948,453.0,3.13,-8.75,-12.19,203.23,-1.88,-3.34,5.0,43.263,55.753143,48.743607,212.6,191.0336761,,23.491,,0 / 23,206514,2017-11-09 18:56:52:971
0.3639,0.1437,10.0173,0.6303,0.2979,9.7818,-0.2486,0.1459,-0.2925,-0.0468,-0.0085,-0.0287,456.0,3.56,-9.25,-12.44,208.81,-1.79,-3.6,5.0,42.461,55.753143,48.743607,212.6,191.0336761,,23.491,,0 / 23,207013,2017-11-09 18:56:53:470
1.063,0.3926,10.1131,0.6102,0.396,9.7796,0.2994,8.0E-4,0.2888,0.0213,0.0362,-0.231,456.0,4.75,-8.44,-12.62,217.78,-2.31,-3.57,5.0,39.242,55.753143,48.743607,212.6,191.0336761,,23.491,,0 / 23,207514,2017-11-09 18:56:53:971
0.5938,0.0479,10.2089,0.5606,0.4444,9.7805,0.1491,-0.3362,0.4146,0.0128,0.0394,-0.2683,459.0,4.56,-7.69,-12.44,212.11,-2.41,-3.41,5.0,38.093,55.753143,48.743607,212.6,191.0336761,,23.491,,0 / 23,208013,2017-11-09 18:56:54:470
0.3256,0.7278,9.4906,0.6122,0.4558,9.7768,0.1013,0.3336,-0.4526,0.0671,0.0575,-0.2608,465.0,5.63,-7.62,-12.87,222.56,-2.66,-3.58,5.0,39.112,55.753143,48.743607,212.6,191.0336761,,23.491,,0 / 23,208513,2017-11-09 18:56:54:970
0.7374,0.067,10.6973,0.5327,0.4777,9.7805,0.1411,-0.1762,0.4645,0.0724,-0.0213,-0.2704,474.0,6.88,-7.69,-12.31,226.34,-2.9,-3.15,5.0,39.843,55.753143,48.743607,212.6,191.0336761,,23.491,,0 / 23,209014,2017-11-09 18:56:55:471
0.9098,0.316,9.4619,0.5707,0.3871,9.7823,0.141,0.1592,-0.4488,0.0319,-0.0394,-0.3737,477.0,6.56,-5.31,-12.44,242.35,-2.22,-3.35,5.0,39.351,55.753143,48.743607,212.6,191.0336761,,23.491,,0 / 23,209514,2017-11-09 18:56:55:971
0.8236,0.3639,10.1323,0.5842,0.3751,9.782,0.2185,-0.0141,0.2967,-0.0032,-0.0415,-0.4163,471.0,7.56,-3.56,-13.06,254.09,-2.31,-3.38,5.0,40.603,55.753143,48.743607,212.6,191.0336761,,23.491,,0 / 23,210014,2017-11-09 18:56:56:471
0.5267,0.3735,9.4332,0.6583,0.3016,9.7798,0.1238,-0.1217,-0.0247,-0.0724,0.0,-0.3599,465.0,8.0,-2.56,-13.62,253.84,-1.76,-3.87,5.0,41.287,55.753143,48.743607,212.6,191.0336761,,23.491,,0 / 23,210514,2017-11-09 18:56:56:971
0.2107,0.6416,9.5098,0.9143,0.172,9.7624,-0.9006,0.9453,-1.0134,-0.3034,-0.4418,-0.5387,456.0,7.31,0.38,-14.87,265.05,-1.24,-5.14,5.0,43.088,55.753143,48.743607,212.6,191.0336761,,23.491,,0 / 23,211014,2017-11-09 18:56:57:471
1.6568,-0.0575,10.2376,1.5426,-0.0745,9.6842,0.2424,0.0873,-0.2622,0.0617,0.0224,-0.2033,504.0,5.0,0.38,-16.62,269.09,0.44,-9.05,5.0,40.206,55.753143,48.743607,212.6,191.0336761,,23.491,,0 / 23,211513,2017-11-09 18:56:57:970
1.8866,-0.0096,10.5153,1.561,-0.0596,9.6814,0.4334,-0.0629,-0.4363,0.016,0.0767,-0.1267,381.0,4.88,0.81,-17.62,276.29,0.45,-9.35,5.0,41.425,55.753143,48.743607,212.6,191.0336761,,23.491,,0 / 23,212013,2017-11-09 18:56:58:470
1.6855,0.1724,9.7779,2.3148,0.5912,9.5111,0.8011,-0.0746,0.3332,-0.2683,0.8507,-0.2853,360.0,3.19,-0.44,-20.0,278.4,-3.46,-13.68,5.0,43.054,55.753143,48.743607,212.6,191.0336761,,23.491,,0 / 23,212514,2017-11-09 18:56:58:971
1.1396,0.6704,9.6247,0.4074,0.4083,9.7896,-0.586,0.3151,-0.3193,-0.016,-0.1597,0.1757,321.0,6.25,1.44,-18.44,292.35,-2.32,-2.16,5.0,39.603,55.753143,48.743607,212.6,191.0336761,,23.491,,0 / 23,213014,2017-11-09 18:56:59:471
0.7566,0.1341,10.0078,0.5972,0.3046,9.7837,0.184,-0.2375,0.1279,0.0032,0.0319,0.2938,315.0,7.13,1.5,-19.06,287.7,-1.82,-3.39,5.0,57.395,55.753143,48.743607,212.6,191.0336761,,23.491,,0 / 23,213514,2017-11-09 18:56:59:971
0.4405,0.3926,9.596,0.5913,0.2913,9.7844,-0.1629,0.0993,-0.2455,-0.0064,0.0213,-0.0607,324.0,7.56,0.75,-19.44,279.58,-1.69,-3.51,5.0,47.908,55.753143,48.743607,212.6,191.0336761,,23.491,,0 / 23,214014,2017-11-09 18:57:00:471
0.8045,0.0958,9.8833,0.6423,0.2186,9.7831,0.0333,-0.1102,7.0E-4,0.0149,0.0468,-0.1693,333.0,7.5,1.75,-20.44,284.7,-1.29,-3.73,5.0,50.279,55.753143,48.743607,212.6,191.0336761,,23.491,,0 / 23,214513,2017-11-09 18:57:00:970
0.8523,0.6225,9.6534,0.6673,0.2788,9.7799,-0.29,0.0533,0.1305,-0.0213,-0.066,-0.2002,432.0,6.38,3.44,-21.44,293.17,-1.64,-3.79,5.0,49.621,55.753143,48.743607,212.6,191.0336761,,23.491,,0 / 23,215013,2017-11-09 18:57:01:470
0.2777,0.0958,10.1131,0.6869,0.2833,9.7784,-0.3292,-0.1101,0.5057,0.0341,0.0298,-0.1075,435.0,5.56,3.88,-23.0,301.46,-1.66,-4.02,5.0,44.893,55.753143,48.743607,212.6,191.0336761,,23.491,,0 / 23,215514,2017-11-09 18:57:01:971
0.6416,0.3448,10.0269,0.6808,0.2533,9.7797,-0.3446,0.0683,-0.0947,-0.017,0.0522,0.1682,441.0,5.94,4.44,-24.12,301.37,-1.54,-3.85,5.0,42.406,55.753143,48.743607,212.6,191.0336761,,23.491,,0 / 23,216014,2017-11-09 18:57:02:471
0.6416,0.0,9.9599,0.637,0.3002,9.7813,-0.0422,-0.1743,0.0224,0.0468,-0.0138,0.0798,447.0,6.69,3.81,-24.31,298.88,-1.78,-3.78,5.0,40.759,55.753143,48.743607,212.6,191.0336761,,23.491,,0 / 23,216514,2017-11-09 18:57:02:971
0.6416,0.0,10.161,0.6029,0.3105,9.7831,-0.0569,-0.2043,-0.0284,-0.0522,-0.0341,-0.017,453.0,6.56,3.38,-25.0,297.11,-2.04,-3.49,5.0,41.521,55.753143,48.743607,212.6,191.0336761,,23.491,,0 / 23,217013,2017-11-09 18:57:03:470
0.5171,0.2011,10.094,0.5963,0.3841,9.7809,0.1586,0.1129,-0.2803,0.0192,-0.0128,-0.0096,453.0,7.19,3.44,-26.0,295.06,-2.28,-3.51,5.0,40.933,55.753143,48.743607,212.6,191.0336761,,23.491,,0 / 23,217513,2017-11-09 18:57:03:970
0.2873,0.0479,10.2472,0.6444,0.338,9.7796,-0.4384,0.0558,0.0434,0.0117,0.0415,-0.0437,456.0,5.81,3.88,-26.94,302.61,-2.09,-3.77,5.0,40.479,55.753143,48.743607,212.6,191.0336761,,23.491,,0 / 23,218013,2017-11-09 18:57:04:470
0.7661,0.3735,9.2799,0.6523,0.3586,9.7783,0.0028,-0.1277,-0.3374,0.0138,-0.0149,0.0564,462.0,6.69,3.5,-26.81,299.73,-2.16,-3.75,5.0,41.704,55.753143,48.743607,212.6,191.0336761,,23.491,,0 / 23,218514,2017-11-09 18:57:04:971
0.7374,0.0766,10.0556,0.6608,0.3355,9.7786,-0.4652,0.2849,-0.2291,0.0522,0.0351,0.0064,465.0,7.31,3.44,-27.94,293.93,-1.96,-3.87,5.0,44.941,55.753143,48.743607,212.6,191.0336761,,23.491,,0 / 23,219014,2017-11-09 18:57:05:471
0.3735,0.4118,9.5385,0.6204,0.3515,9.7806,-0.3099,0.1173,0.023,0.0064,0.0405,-0.0053,471.0,6.63,3.81,-28.62,294.37,-2.0,-3.58,5.0,46.68,55.753143,48.743607,212.6,191.0336761,,23.491,,0 / 23,219513,2017-11-09 18:57:05:970
1.0151,-0.0766,10.3238,0.5965,0.3661,9.7816,0.1259,-0.5543,0.6301,0.0426,-0.0437,-0.0373,471.0,7.13,3.06,-29.56,294.95,-2.14,-3.49,5.0,45.852,55.753143,48.743607,212.6,191.0336761,,23.491,,0 / 23,220014,2017-11-09 18:57:06:471
0.5267,1.0726,8.849,0.6047,0.459,9.7772,-0.1666,0.3524,-0.6304,0.0405,-0.0468,-0.1544,471.0,7.0,2.63,-29.81,299.15,-2.62,-3.46,5.0,46.217,55.753143,48.743607,212.6,191.0336761,,23.491,,0 / 23,220514,2017-11-09 18:57:06:971
1.1301,0.1724,10.3813,0.6619,0.4031,9.7759,0.3445,0.2517,-0.335,0.0522,0.0298,0.1001,477.0,5.75,3.25,-31.19,297.9,-2.34,-3.75,5.0,42.698,55.753143,48.743607,212.6,191.0336761,,23.491,,0 / 23,221014,2017-11-09 18:57:07:471
0.2011,0.4405,10.1801,0.6618,0.3881,9.7765,-0.5439,0.2532,0.0368,0.0468,-0.0202,0.0575,483.0,6.31,3.19,-30.87,297.5,-2.27,-3.87,5.0,41.112,55.753143,48.743607,212.6,191.0336761,,23.491,,0 / 23,221514,2017-11-09 18:57:07:971
0.5267,0.6416,9.4715,0.6859,0.349,9.7764,-0.1677,0.2797,-0.3647,0.0617,-0.0266,-0.0075,486.0,6.69,2.94,-31.94,296.6,-2.04,-4.0,5.0,45.828,55.753143,48.743607,212.6,191.0336761,,23.491,,0 / 23,222014,2017-11-09 18:57:08:471
0.5555,0.6895,9.8162,0.6422,0.4494,9.7752,0.3448,-0.3733,0.3717,0.0032,0.0405,0.0032,486.0,6.38,2.13,-31.87,293.07,-2.63,-3.76,5.0,46.533,55.753143,48.743607,212.6,191.0336761,,23.491,,0 / 23,222514,2017-11-09 18:57:08:971
0.7087,0.3735,9.8162,0.6453,0.4375,9.7756,-0.4624,0.0602,0.7146,0.0522,0.0277,-0.0309,486.0,6.0,2.56,-33.06,298.63,-2.55,-3.74,5.0,45.613,55.753143,48.743607,212.6,191.0336761,,23.491,,0 / 23,223014,2017-11-09 18:57:09:471
0.7853,0.0287,10.2951,0.6425,0.4315,9.776,0.2562,-0.2474,0.4297,0.0351,0.0277,0.1171,489.0,6.94,2.5,-34.19,296.12,-2.59,-3.73,5.0,45.774,55.753143,48.743607,212.6,191.0336761,,23.491,,0 / 23,223513,2017-11-09 18:57:09:970
0.5746,0.814,9.1842,0.6235,0.4665,9.7756,-0.2443,-0.0179,-0.0601,-0.0319,-0.0522,0.0149,495.0,6.25,2.5,-34.62,299.46,-2.73,-3.65,5.0,45.085,55.753143,48.743607,212.6,191.0336761,,23.491,,0 / 23,224013,2017-11-09 18:57:10:470
0.8619,0.6608,9.5864,0.6264,0.4783,9.7749,0.1692,0.1962,-0.168,0.0,0.0011,0.0192,501.0,6.75,2.44,-35.37,291.42,-2.67,-3.61,5.0,41.817,55.753143,48.743607,212.6,191.0336761,,23.491,,0 / 23,224514,2017-11-09 18:57:10:971
0.6321,0.0383,10.3621,0.6194,0.4113,9.7784,0.0347,-0.3254,0.2905,0.049,-0.0106,-0.0202,507.0,6.75,1.81,-35.44,290.53,-2.4,-3.62,5.0,40.596,55.753143,48.743607,212.6,191.0336761,,23.491,,0 / 23,225014,2017-11-09 18:57:11:471
1.0056,0.4214,9.7109,0.6125,0.4333,9.7779,0.0716,0.0988,-0.2485,-0.0202,0.0511,-0.1086,510.0,6.5,2.63,-36.44,293.61,-2.53,-3.52,5.0,40.99,55.753143,48.743607,212.6,191.0336761,,23.491,,0 / 23,225513,2017-11-09 18:57:11:970
0.3543,0.3448,10.3908,0.6223,0.4547,9.7763,-0.1284,-0.1395,0.4299,0.0415,0.0415,0.0926,519.0,6.5,1.88,-36.31,291.45,-2.66,-3.64,5.0,40.898,55.753143,48.743607,212.6,191.0336761,,23.491,,0 / 23,226014,2017-11-09 18:57:12:471
0.7183,0.0287,10.4866,0.6043,0.4331,9.7784,0.1598,-0.3705,0.8103,0.016,0.0234,0.0298,522.0,6.56,0.5,-37.31,291.33,-2.54,-3.52,5.0,40.954,55.753143,48.743607,212.6,191.0336761,,23.491,,0 / 23,226514,2017-11-09 18:57:12:971
0.8619,0.3065,10.228,0.594,0.4303,9.7791,-0.3492,0.0843,-0.2702,0.0468,0.0,-0.0117,528.0,7.44,1.44,-37.25,285.46,-2.44,-3.5,5.0,41.429,55.753143,48.743607,212.6,191.0336761,,23.491,,0 / 23,227013,2017-11-09 18:57:13:470
0.814,0.0766,9.4715,0.5979,0.4904,9.7761,-0.0235,0.211,-0.4522,-0.0234,0.0096,-0.0245,525.0,7.31,1.94,-38.0,291.0,-3.01,-3.52,5.0,42.415,55.753143,48.743607,212.6,191.0336761,,23.491,,0 / 23,227515,2017-11-09 18:57:13:972
0.814,0.2873,10.2951,0.5542,0.6163,9.7715,0.4781,-0.3117,0.2774,0.0149,0.0032,-0.0798,528.0,6.94,0.13,-38.75,284.75,-3.6,-3.25,5.0,45.0,55.753143,48.743607,212.6,191.0336761,,23.491,,0 / 23,228013,2017-11-09 18:57:14:470
0.2011,0.2586,9.8354,0.5465,0.6074,9.7725,0.136,0.2317,-0.0464,-0.0383,-0.016,0.0021,537.0,6.69,-0.31,-39.31,279.47,-3.52,-3.26,5.0,43.361,55.753143,48.743607,212.6,191.0336761,,23.491,,0 / 23,228513,2017-11-09 18:57:14:970
0.4788,0.4788,9.845,0.5453,0.6085,9.7725,-0.2736,-0.0135,-0.106,0.0085,0.0106,0.0085,543.0,7.19,-0.75,-39.75,278.73,-3.51,-3.28,5.0,43.318,55.753143,48.743607,212.6,191.0336761,,23.491,,0 / 23,229014,2017-11-09 18:57:15:471
0.6321,0.3735,10.4291,0.5944,0.58,9.7714,0.03,-0.2104,0.6011,0.033,0.0543,0.0703,555.0,6.38,-1.31,-40.62,279.25,-3.42,-3.41,5.0,45.313,55.753143,48.743607,212.6,191.0336761,,23.491,,0 / 23,229513,2017-11-09 18:57:15:970
0.4693,0.6895,9.4236,0.5934,0.6047,9.7699,-0.1434,-0.1591,-0.153,-0.0437,-0.05,-0.0862,561.0,6.5,-1.31,-40.87,279.21,-3.58,-3.46,5.0,41.536,55.753143,48.743607,212.6,191.0336761,,23.491,,0 / 23,230014,2017-11-09 18:57:16:471
0.5746,0.5363,9.4906,0.5901,0.5857,9.7713,0.1263,-0.4131,-0.0547,0.0245,0.0,0.0064,573.0,5.5,-1.25,-41.19,280.9,-3.71,-3.45,5.0,42.62,55.753143,48.743607,212.6,191.0336761,,23.491,,0 / 23,230514,2017-11-09 18:57:16:971
0.4501,-0.0096,10.6207,0.5804,0.5986,9.7711,-0.2387,-0.1262,-0.1332,0.1001,0.0138,0.0777,579.0,5.13,-2.06,-41.25,274.47,-3.64,-3.42,5.0,48.629,55.753143,48.743607,212.6,191.0336761,,23.491,,0 / 23,231013,2017-11-09 18:57:17:470
0.6129,0.4788,9.3182,0.584,0.7104,9.7634,-0.1844,-0.025,0.3338,-0.0085,0.0128,-0.0192,582.0,5.88,-4.06,-41.56,262.74,-4.02,-3.38,5.0,46.487,55.753143,48.743607,212.6,191.0336761,,23.491,,0 / 23,231514,2017-11-09 18:57:17:971
0.2107,0.4405,10.1227,0.5951,0.6661,9.7658,-0.1076,-0.3908,0.0794,0.0405,0.0724,-0.0703,588.0,5.31,-3.75,-41.56,260.94,-3.94,-3.52,5.0,46.821,55.753143,48.743607,212.6,191.0336761,,23.491,,0 / 23,232014,2017-11-09 18:57:18:471
0.565,0.7278,9.5098,0.6213,0.7299,9.7596,0.1418,-0.4858,0.6533,0.0405,0.017,-0.0564,591.0,5.44,-3.87,-42.0,263.74,-4.34,-3.66,5.0,46.884,55.753143,48.743607,212.6,191.0336761,,23.491,,0 / 23,232514,2017-11-09 18:57:18:971
0.5555,0.4693,10.1418,0.6206,0.8132,9.7531,-0.0564,-0.5132,0.0884,-0.0468,-0.0181,-0.016,573.0,5.94,-5.0,-42.31,259.62,-4.7,-3.61,5.0,44.286,55.753143,48.743607,212.6,191.0336761,,23.491,,0 / 23,233014,2017-11-09 18:57:19:471
0.1341,0.747,8.6383,0.6396,0.8048,9.7526,-0.1334,-0.5083,0.4618,0.0075,0.0309,0.148,534.0,4.75,-5.62,-42.25,251.66,-4.69,-3.81,5.0,44.422,55.753143,48.743607,212.6,191.0336761,,23.491,,0 / 23,233514,2017-11-09 18:57:19:971
0.6608,0.0766,10.4196,0.6473,0.8098,9.7516,-0.272,-0.0408,-0.8095,-0.0767,-0.0202,0.0064,516.0,4.75,-5.81,-41.87,251.86,-4.74,-3.8,5.0,44.488,55.753143,48.743607,212.6,191.0336761,,23.491,,0 / 23,234014,2017-11-09 18:57:20:471
0.4214,0.6033,9.6247,0.6939,0.7928,9.7498,-0.1427,-0.1864,-0.1132,-0.0256,0.0373,0.0671,507.0,5.19,-6.62,-41.37,244.9,-4.64,-4.07,5.0,42.235,55.753143,48.743607,212.6,191.0336761,,23.491,,0 / 23,234514,2017-11-09 18:57:20:971
0.4214,0.3831,9.8545,0.7199,0.7804,9.7489,-0.5459,-0.3547,-0.3659,-0.0224,0.0053,-0.0075,528.0,4.88,-6.62,-41.44,251.74,-4.69,-4.32,5.0,43.586,55.753143,48.743607,212.6,191.0336761,,23.491,,0 / 23,235014,2017-11-09 18:57:21:471
0.814,0.4501,9.5577,0.7057,0.7523,9.7522,0.0219,-0.3306,0.0327,0.0298,0.017,-0.0224,531.0,4.44,-6.31,-41.31,247.58,-4.4,-4.14,5.0,41.079,55.753143,48.743607,212.6,191.0336761,,23.491,,0 / 23,235514,2017-11-09 18:57:21:971
0.929,-0.2777,10.8218,0.7228,0.7273,9.7528,0.1862,-0.8813,0.8825,0.0777,0.0415,-0.1129,498.0,4.88,-4.69,-41.81,256.75,-4.25,-4.26,5.0,48.143,55.753143,48.743607,212.6,191.0336761,,23.491,,0 / 23,236014,2017-11-09 18:57:22:471
0.6704,0.0766,10.6015,0.6986,0.7499,9.7529,-0.1342,-0.581,-0.39,-0.0394,0.0319,-0.296,492.0,4.75,-6.0,-41.25,246.76,-4.21,-4.2,5.0,47.805,55.753143,48.743607,212.6,191.0336761,,23.491,,0 / 23,236513,2017-11-09 18:57:22:970
0.2777,0.4501,9.2703,0.6325,0.8045,9.7531,0.3491,-0.5735,0.4222,-0.0373,0.0106,-0.2183,426.0,4.75,-5.69,-41.25,257.84,-4.7,-3.8,5.0,43.382,55.753143,48.743607,212.6,191.0336761,,23.491,,0 / 23,237013,2017-11-09 18:57:23:470
0.5076,0.5938,9.8258,0.5797,0.8399,9.7534,0.3206,-0.7201,-0.1849,-0.049,-0.0351,-0.4493,456.0,5.13,-4.56,-41.37,259.06,-5.01,-3.38,5.0,40.461,55.753143,48.743607,212.6,191.0336761,,23.491,,0 / 23,237513,2017-11-09 18:57:23:970
-0.1149,0.4597,10.4483,0.5112,0.8765,9.754,-0.4629,-0.3776,-0.2625,0.0138,-0.1512,-0.3875,438.0,5.0,-5.06,-40.81,267.7,-5.13,-3.07,5.0,39.745,55.753143,48.743607,212.6,191.0336761,,23.491,,0 / 23,238013,2017-11-09 18:57:24:470
0.8236,0.6512,9.663,0.4386,0.8894,9.7563,0.3571,-0.2411,-0.1484,-0.0458,0.0053,-0.3002,426.0,5.13,-3.31,-41.19,275.71,-5.18,-2.65,5.0,39.856,55.753143,48.743607,212.6,191.0336761,,23.491,,0 / 23,238514,2017-11-09 18:57:24:971
0.565,-0.0192,9.9311,0.4594,0.759,9.7664,-0.2206,-0.5905,-0.0115,-0.0053,-0.0405,-0.2885,408.0,4.38,-1.87,-41.5,281.09,-4.44,-2.69,5.0,39.342,55.753143,48.743607,212.6,191.0336761,,23.491,,0 / 23,239016,2017-11-09 18:57:25:473
0.2969,0.1532,10.2951,0.4168,0.7342,9.7702,-0.3518,-0.482,0.1417,0.017,-0.0011,-0.4141,402.0,4.06,-1.06,-41.25,290.33,-4.39,-2.43,5.0,38.155,55.753143,48.743607,212.6,191.0336761,,23.491,,0 / 23,239514,2017-11-09 18:57:25:971
0.9481,0.2298,9.9982,0.3627,0.6581,9.7778,-0.0382,-0.1787,-0.1115,-0.0213,-0.0468,-0.51,408.0,3.81,0.25,-41.94,296.81,-3.85,-2.12,5.0,39.369,55.753143,48.743607,212.6,191.0336761,,23.491,,0 / 23,240013,2017-11-09 18:57:26:470
0.5363,0.4022,9.663,0.6371,0.4185,9.7769,-0.0686,-0.061,-0.17,-0.2832,-0.4461,-0.3599,408.0,0.38,0.94,-41.94,313.43,-2.91,-3.14,5.0,39.865,55.753143,48.743607,212.6,191.0336761,,23.491,,0 / 23,240514,2017-11-09 18:57:26:971
1.1301,-0.1149,9.7013,1.2097,0.0178,9.7317,0.5392,-0.2435,-0.2905,-0.0798,-0.0117,-0.2033,366.0,-1.69,2.88,-42.06,313.9,-0.1,-7.09,5.0,42.386,55.753143,48.743607,212.6,191.0336761,,23.491,,0 / 23,241014,2017-11-09 18:57:27:471
0.2298,1.4461,9.4619,0.485,0.3359,9.7888,-0.1609,0.3781,1.0618,0.5845,1.0561,-0.2449,273.0,1.75,1.5,-43.56,304.8,-0.65,-4.68,5.0,39.637,55.753143,48.743607,212.6,191.0336761,,23.491,,0 / 23,241513,2017-11-09 18:57:27:970
-0.1149,0.6033,9.8641,0.1439,0.4896,9.7933,0.0413,0.0973,0.4616,-0.1011,-0.1746,-0.0309,240.0,2.81,3.0,-42.5,324.61,-2.86,-0.84,5.0,52.967,55.753143,48.743607,212.6,191.0336761,,23.491,,0 / 23,242013,2017-11-09 18:57:28:470
0.4214,0.0096,9.845,0.2628,0.2856,9.7989,-0.233,0.1808,0.4264,0.0437,0.0096,0.3215,270.0,2.81,3.81,-42.44,309.4,-1.67,-1.57,5.0,39.934,55.753143,48.743607,212.6,191.0336761,,23.491,,0 / 23,242514,2017-11-09 18:57:28:971
0.4214,0.431,9.9407,0.3072,0.258,9.7984,0.0735,0.4466,0.4955,0.0043,-0.0341,0.0053,285.0,4.69,4.44,-42.81,309.04,-1.5,-1.75,5.0,41.373,55.753143,48.743607,212.6,191.0336761,,23.491,,0 / 23,243014,2017-11-09 18:57:29:471
0.0862,0.7183,9.8928,0.3119,0.1753,9.8001,-0.3234,0.4709,0.4056,0.329,0.3609,0.3641,270.0,3.56,5.44,-43.56,318.03,-0.5,-2.31,5.0,41.279,55.753143,48.743607,212.6,191.0336761,,23.491,,0 / 23,243514,2017-11-09 18:57:29:971
0.4118,0.067,8.418,0.2465,0.229,9.8008,-0.591,0.2404,0.1302,0.017,-0.0394,0.0564,264.0,4.56,5.81,-44.06,319.0,-1.34,-1.44,5.0,40.603,55.753143,48.743607,212.6,191.0336761,,23.491,,0 / 23,244014,2017-11-09 18:57:30:471
-0.067,0.4501,10.8697,0.2208,0.3107,9.7992,0.0932,-0.1908,0.2882,-0.1746,-0.0554,-0.1118,255.0,4.69,6.75,-46.19,319.9,-1.73,-1.32,5.0,41.576,55.753143,48.743607,212.6,191.0336761,,23.491,,0 / 23,244514,2017-11-09 18:57:30:971
0.3831,0.1532,9.4619,0.3033,0.2584,9.7985,0.2875,0.078,1.0636,0.0671,-0.0096,-0.0703,342.0,3.63,7.0,-47.25,327.16,-1.56,-1.63,5.0,41.421,55.753143,48.743607,212.6,191.0336761,,23.491,,0 / 23,245013,2017-11-09 18:57:31:470
0.5076,0.0287,9.8354,0.3317,0.2206,9.7985,-0.0366,-0.0639,0.0246,-0.016,0.0192,-0.0032,405.0,4.63,7.31,-47.5,328.35,-1.27,-1.92,5.0,41.599,55.753143,48.743607,212.6,191.0336761,,23.491,,0 / 23,245513,2017-11-09 18:57:31:970
0.3256,0.4405,10.0748,0.295,0.2295,9.7995,0.0762,0.0724,-0.8193,0.0788,0.0415,0.115,522.0,4.13,7.44,-49.19,326.09,-1.34,-1.72,5.0,41.182,55.753143,48.743607,212.6,191.0336761,,23.491,,0 / 23,246014,2017-11-09 18:57:32:471
0.2682,-0.0287,10.5728,0.2607,0.23,9.8004,0.1396,-0.391,0.7675,0.0011,-0.0309,0.1416,543.0,5.63,6.69,-50.06,317.66,-1.28,-1.6,5.0,46.198,55.753143,48.743607,212.6,191.0336761,,23.491,,0 / 23,246514,2017-11-09 18:57:32:971
0.0766,0.0192,9.7779,0.2251,0.235,9.8012,-0.134,-0.3525,-0.2428,-0.033,-0.0596,-0.0287,528.0,6.0,7.13,-51.75,318.89,-1.37,-1.32,5.0,50.676,55.753143,48.743607,212.6,191.0336761,,23.491,,0 / 23,247013,2017-11-09 18:57:33:470
0.2586,1.1396,9.2225,0.1359,0.3447,9.7996,0.0104,0.4869,-0.3686,0.1022,-0.1267,-0.3119,48.0,5.5,6.75,-53.19,322.0,-1.1,-1.37,5.0,48.84,55.753143,48.743607,212.6,191.0336761,,23.491,,0 / 23,247514,2017-11-09 18:57:33:971
-0.5459,0.8332,9.73,0.2657,0.6201,9.7834,-0.8359,0.0041,-0.2248,0.0298,-0.0245,-0.1672,87.0,2.44,5.19,-54.62,329.99,-3.44,-1.86,5.0,46.638,55.753143,48.743607,212.6,191.0336761,,23.491,,0 / 23,248014,2017-11-09 18:57:34:471
0.6512,0.6033,9.5672,0.4705,0.4447,9.7852,0.1055,0.3177,0.0282,0.0117,0.0117,0.0809,201.0,2.31,5.63,-54.5,331.44,-2.6,-2.75,5.0,51.147,55.753143,48.743607,212.6,191.0336761,,23.491,,0 / 23,248514,2017-11-09 18:57:34:971
0.68,0.2298,10.0748,0.4132,0.4492,9.7876,0.1704,-0.3126,0.2319,-0.0341,0.0,-0.0309,462.0,4.0,4.63,-55.94,320.2,-2.7,-2.41,5.0,42.457,55.753143,48.743607,212.6,191.0336761,,23.491,,0 / 23,249014,2017-11-09 18:57:35:471
0.6512,-0.2298,10.8409,0.2883,0.5094,9.7891,0.1366,-0.5118,0.5145,-0.0628,-0.0298,0.0213,468.0,3.5,2.31,-57.0,320.43,-3.0,-1.77,5.0,42.358,55.753143,48.743607,212.6,191.0336761,,23.491,,0 / 23,249513,2017-11-09 18:57:35:970
0.8428,0.1149,9.8928,0.3502,0.5173,9.7867,0.3345,-0.2401,0.3014,0.0458,-0.0192,-0.0394,459.0,3.75,2.44,-56.56,309.61,-3.02,-2.05,5.0,44.023,55.753143,48.743607,212.6,191.0336761,,23.491,,0 / 23,250014,2017-11-09 18:57:36:471
0.6321,0.249,9.7779,0.3835,0.5134,9.7856,0.2963,-0.2105,-0.3837,-0.0373,-0.0085,0.0266,468.0,2.0,0.69,-55.75,314.47,-3.1,-2.15,5.0,42.355,55.753143,48.743607,212.6,191.0336761,,23.491,,0 / 23,250514,2017-11-09 18:57:36:971
0.3256,0.4022,9.9311,0.366,0.5614,9.7837,0.0709,0.035,-0.6858,0.0319,0.0383,0.0362,462.0,2.13,0.5,-55.5,315.6,-3.28,-2.14,5.0,41.398,55.753143,48.743607,212.6,191.0336761,,23.491,,0 / 23,251014,2017-11-09 18:57:37:471
0.8523,0.067,9.6438,0.3431,0.5571,9.7847,0.4841,-0.4878,-0.197,0.0256,0.0522,0.0394,456.0,3.38,0.75,-55.0,310.29,-3.25,-1.93,5.0,42.485,55.753143,48.743607,212.6,191.0336761,,23.491,,0 / 23,251513,2017-11-09 18:57:37:970
0.3831,0.3831,9.6534,0.303,0.6173,9.7825,0.4307,-0.297,-0.1356,0.0511,-0.0735,-0.0586,447.0,2.63,-0.44,-53.69,305.99,-3.61,-1.77,5.0,41.533,55.753143,48.743607,212.6,191.0336761,,23.491,,0 / 23,252014,2017-11-09 18:57:38:471
1.063,0.6895,9.4236,0.3021,0.6633,9.7795,0.456,-0.5438,0.231,-0.0021,-0.0479,-0.0373,441.0,2.88,-1.44,-53.12,299.09,-3.88,-1.77,5.0,41.574,55.753143,48.743607,212.6,191.0336761,,23.491,,0 / 23,252514,2017-11-09 18:57:38:971
0.3831,0.4884,9.663,0.2942,0.7113,9.7763,-0.0207,-0.3019,-0.1303,-0.0117,-0.033,-0.0681,441.0,3.75,-0.81,-52.87,299.33,-4.04,-2.01,5.0,41.931,55.753143,48.743607,212.6,191.0336761,,23.491,,0 / 23,253014,2017-11-09 18:57:39:471
0.2777,0.2873,9.9599,0.2478,0.7086,9.7778,0.0253,-0.428,0.1239,0.0405,0.0256,0.0926,429.0,4.0,-1.37,-52.12,297.36,-4.14,-1.45,5.0,52.886,55.753143,48.743607,212.6,191.0336761,,23.491,,0 / 23,253514,2017-11-09 18:57:39:971
0.2394,0.814,9.7588,0.232,0.7699,9.7736,0.1295,-0.1268,-0.3228,0.033,-0.0202,0.1033,372.0,4.81,-1.75,-51.31,295.46,-4.44,-1.33,5.0,41.786,55.753143,48.743607,212.6,191.0336761,,23.491,,0 / 23,254014,2017-11-09 18:57:40:471
0.2298,0.8906,10.0461,0.2838,0.7433,9.7743,-0.0544,0.1292,0.2161,0.0128,0.0075,-0.0096,351.0,5.5,-1.0,-51.12,290.89,-4.35,-1.66,5.0,41.861,55.753143,48.743607,212.6,191.0336761,,23.491,,0 / 23,254514,2017-11-09 18:57:40:971
0.4118,0.4501,9.3374,0.2993,0.7544,9.7729,0.1405,0.0421,-0.9377,0.0,-0.0106,-0.0554,366.0,5.44,-0.06,-50.62,301.7,-4.59,-1.68,5.0,42.844,55.753143,48.743607,212.6,191.0336761,,23.491,,0 / 23,255013,2017-11-09 18:57:41:470
-0.067,0.8332,9.5002,0.3232,0.7318,9.7739,-0.57,0.0193,-0.2055,0.0256,0.0245,-0.0085,402.0,5.69,0.38,-50.06,295.9,-4.28,-1.89,5.0,41.746,55.753143,48.743607,212.6,191.0336761,,23.491,,0 / 23,255513,2017-11-09 18:57:41:970
0.6416,0.3065,10.4196,0.3128,0.6956,9.7769,0.1792,-0.2989,-0.1892,-0.0075,0.0128,0.0628,402.0,5.44,1.19,-50.19,300.78,-4.08,-1.87,5.0,41.362,55.753143,48.743607,212.6,191.0336761,,23.491,,0 / 23,256013,2017-11-09 18:57:42:470
0.3831,0.1532,10.6015,0.3551,0.6254,9.7802,0.107,-0.3248,0.5328,-0.016,0.0234,0.0351,390.0,6.56,2.0,-50.69,300.21,-3.63,-2.19,5.0,43.477,55.753143,48.743607,212.6,191.0336761,,23.491,,0 / 23,256514,2017-11-09 18:57:42:971
0.6321,0.0096,10.343,0.3754,0.5434,9.7843,0.3797,-0.46,0.2351,-0.016,-0.0128,0.0256,378.0,6.44,1.81,-50.31,306.51,-3.28,-2.18,5.0,47.406,55.753143,48.743607,212.6,191.0336761,,23.491,,0 / 23,257013,2017-11-09 18:57:43:470
0.5459,0.7087,9.3278,0.4243,0.5346,9.7828,0.1421,0.0901,-0.3713,0.0383,-0.0245,-0.0862,372.0,7.13,2.56,-50.5,297.68,-3.17,-2.35,5.0,44.4,55.753143,48.743607,212.6,191.0336761,,23.491,,0 / 23,257513,2017-11-09 18:57:43:970
0.249,0.2011,10.0365,0.4439,0.509,9.7833,0.5037,-0.4856,0.4423,-0.0458,-0.0011,0.0277,366.0,7.5,2.5,-51.31,304.31,-2.99,-2.56,5.0,44.623,55.753143,48.743607,212.6,191.0336761,,23.491,,0 / 23,258014,2017-11-09 18:57:44:471
0.7183,0.2586,10.2568,0.4074,0.4862,9.7861,0.3378,-0.1347,0.0866,0.0522,0.0064,-0.0075,354.0,7.75,3.44,-51.25,298.56,-2.84,-2.38,5.0,42.211,55.753143,48.743607,212.6,191.0336761,,23.491,,0 / 23,258514,2017-11-09 18:57:44:971
0.316,0.2969,10.2855,0.4493,0.4803,9.7845,-0.0415,-0.095,0.5779,0.0138,-0.0202,0.0884,345.0,7.5,2.81,-51.56,297.83,-2.79,-2.64,5.0,41.833,55.753143,48.743607,212.6,191.0336761,,23.491,,0 / 23,259014,2017-11-09 18:57:45:471
0.4214,0.7087,9.4906,0.4346,0.4303,9.7875,-0.3754,0.2814,-0.562,0.0032,-0.0298,-0.0256,336.0,7.81,3.0,-52.0,296.4,-2.42,-2.68,5.0,41.911,55.753143,48.743607,212.6,191.0336761,,23.491,,0 / 23,259514,2017-11-09 18:57:45:971
0.6129,0.1341,10.5824,0.4448,0.4621,9.7856,0.1628,-0.3393,0.7437,-0.0138,-0.0192,-0.0703,330.0,8.5,3.13,-53.81,302.1,-2.72,-2.58,5.0,46.851,55.753143,48.743607,212.6,191.0336761,,23.491,,0 / 23,260013,2017-11-09 18:57:46:470
0.4405,0.3352,10.1418,0.4362,0.4896,9.7846,-0.1051,-0.0313,-0.3732,-0.0468,0.0,-0.0064,321.0,8.94,2.25,-54.37,291.5,-2.68,-2.59,5.0,48.664,55.753143,48.743607,212.6,191.0336761,,23.491,,0 / 23,260514,2017-11-09 18:57:46:971
-0.3352,0.6608,9.8258,0.4014,0.4693,9.7871,-0.8743,0.0969,0.144,0.0181,0.016,0.0245,312.0,10.31,2.56,-55.19,293.99,-2.68,-2.57,5.0,49.897,55.753143,48.743607,212.6,191.0336761,,23.491,,0 / 23,261014,2017-11-09 18:57:47:471
0.2777,0.4405,9.7109,0.4119,0.4953,9.7854,-0.3636,0.0874,-0.5106,-0.0043,-0.0266,-0.033,303.0,10.81,1.06,-56.44,285.93,-2.94,-2.54,5.0,44.839,55.753143,48.743607,212.6,191.0336761,,23.491,,0 / 23,261514,2017-11-09 18:57:47:971
0.7661,0.3448,10.1706,0.4294,0.5138,9.7837,0.3234,-0.1692,0.334,0.0181,-0.0117,-0.0192,297.0,9.69,0.19,-57.06,283.34,-3.0,-2.51,5.0,47.37,55.753143,48.743607,212.6,191.0336761,,23.491,,0 / 23,262013,2017-11-09 18:57:48:470
0.8236,0.431,9.6917,0.5027,0.5977,9.7754,0.3597,-0.3288,-0.05,-0.0256,0.016,-0.0064,288.0,10.0,-2.0,-57.31,276.78,-3.52,-2.85,5.0,41.895,55.753143,48.743607,212.6,191.0336761,,23.491,,0 / 23,262513,2017-11-09 18:57:48:970
0.6704,0.3352,9.1937,0.5003,0.6346,9.7732,-0.3068,-0.2359,0.4816,0.0319,0.0021,0.0905,273.0,10.25,-2.25,-58.25,277.56,-3.71,-2.93,5.0,41.746,55.753143,48.743607,212.6,191.0336761,,23.491,,0 / 23,263013,2017-11-09 18:57:49:470
0.5076,0.2682,9.7683,0.5014,0.732,9.7664,0.2019,-0.5398,0.6061,0.0479,-0.0117,0.0735,270.0,10.69,-4.62,-58.5,266.88,-4.28,-2.91,5.0,42.454,55.753143,48.743607,212.6,191.0336761,,23.491,,0 / 23,263513,2017-11-09 18:57:49:970
0.9768,-0.1245,10.41,0.5137,0.8501,9.7562,-0.2942,-0.2752,-0.4418,-0.0192,0.0043,0.0926,267.0,10.13,-6.87,-57.75,257.08,-5.09,-2.97,5.0,42.105,55.753143,48.743607,212.6,191.0336761,,23.491,,0 / 23,264013,2017-11-09 18:57:50:470
0.2969,0.3065,9.9695,0.5686,0.9688,9.742,-0.2632,-0.6768,0.1696,0.033,0.0266,-0.066,261.0,11.13,-10.12,-56.75,252.93,-5.67,-3.34,5.0,42.217,55.753143,48.743607,212.6,191.0336761,,23.491,,0 / 23,264514,2017-11-09 18:57:50:971
0.8811,0.1628,10.1418,0.6456,1.1378,9.7189,-0.0361,-0.872,0.268,0.0224,-0.0043,-0.3481,255.0,10.63,-10.37,-55.75,252.24,-6.5,-3.72,5.0,40.603,55.753143,48.743607,212.6,191.0336761,,23.491,,0 / 23,265013,2017-11-09 18:57:51:470
0.5267,0.0192,9.9886,0.597,1.1925,9.7155,-0.0141,-1.2113,0.1392,-0.0224,0.0011,-0.2938,249.0,11.13,-10.62,-54.19,252.72,-6.98,-3.52,5.0,40.176,55.753143,48.743607,212.6,191.0336761,,23.491,,0 / 23,265513,2017-11-09 18:57:51:970
0.4405,0.4788,9.3182,0.5779,1.2583,9.7084,0.5888,-0.9685,0.3371,0.0277,-0.0085,-0.4514,177.0,13.0,-11.0,-52.0,255.35,-7.55,-3.33,5.0,39.976,55.753143,48.743607,212.6,191.0336761,,23.491,,0 / 23,266014,2017-11-09 18:57:52:471
0.68,0.4693,9.4715,0.4391,1.3604,9.7018,0.2095,-0.9539,0.0491,-0.0128,-0.0234,-0.4514,105.0,14.06,-8.94,-50.25,263.29,-7.99,-2.69,5.0,39.772,55.753143,48.743607,212.6,191.0336761,,23.491,,0 / 23,266514,2017-11-09 18:57:52:971
0.7374,0.2203,9.979,0.3035,1.3083,9.7142,0.2733,-1.0309,-0.2729,-0.0277,-0.016,-0.3151,102.0,15.25,-7.44,-49.44,269.15,-7.92,-1.77,5.0,40.665,55.753143,48.743607,212.6,191.0336761,,23.491,,0 / 23,267014,2017-11-09 18:57:53:471
1.3791,-0.249,10.0748,0.2715,1.1991,9.7292,1.0541,-1.4949,0.5592,0.0468,-0.0064,-0.4418,114.0,15.94,-5.75,-48.62,270.47,-7.35,-1.33,5.0,40.32,55.753143,48.743607,212.6,191.0336761,,23.491,,0 / 23,267513,2017-11-09 18:57:53:970
2.4038,0.9577,9.4523,0.8727,1.796,9.6011,1.522,-0.9327,-0.2732,0.0437,0.6867,-1.1786,93.0,12.0,-6.37,-50.19,278.91,-10.25,-6.15,5.0,40.416,55.753143,48.743607,212.6,191.0336761,,23.491,,0 / 23,268014,2017-11-09 18:57:54:471
0.2777,0.5267,7.7189,-0.308,0.9978,9.7508,0.5897,-0.5761,-2.0747,-0.3481,-0.2481,-0.2864,105.0,13.44,-0.37,-52.31,296.78,-6.32,2.49,5.0,39.648,55.753143,48.743607,212.6,191.0336761,,23.491,,0 / 23,268514,2017-11-09 18:57:54:971
1.1684,-0.1341,9.73,0.1331,0.8313,9.7704,0.2701,-0.6636,-0.24,0.0351,0.0032,0.4088,120.0,11.88,2.69,-53.0,300.41,-4.86,-0.78,5.0,40.485,55.753143,48.743607,212.6,191.0336761,,23.491,,0 / 23,269013,2017-11-09 18:57:55:470
0.6991,0.3448,9.2895,0.3807,0.779,9.7682,0.3534,-1.0101,0.6719,0.0085,0.016,0.1118,126.0,11.69,0.25,-51.62,286.45,-4.62,-2.25,5.0,41.577,55.753143,48.743607,212.6,191.0336761,,23.491,,0 / 23,269513,2017-11-09 18:57:55:970
-0.7853,0.9385,10.2185,0.2467,0.7941,9.7713,-1.6255,0.6266,0.4053,0.0181,-0.0671,0.576,129.0,9.19,1.56,-53.87,301.49,-4.64,-1.45,5.0,43.724,55.753143,48.743607,212.6,191.0336761,,23.491,,0 / 23,270014,2017-11-09 18:57:56:471
1.2354,-0.0096,10.0173,0.4377,0.6091,9.7779,0.5831,-0.5858,0.2908,-0.0341,0.0128,-0.1895,141.0,7.88,2.19,-53.62,297.81,-3.66,-2.43,5.0,41.591,55.753143,48.743607,212.6,191.0336761,,23.491,,0 / 23,270514,2017-11-09 18:57:56:971
-0.1341,0.5746,9.7013,0.403,0.5667,9.7819,-0.5326,-9.0E-4,-0.1351,0.0224,0.016,-0.4993,177.0,5.13,3.13,-55.19,310.31,-3.31,-2.36,5.0,42.942,55.753143,48.743607,212.6,191.0336761,,23.491,,0 / 23,271013,2017-11-09 18:57:57:470
-1.9728,-0.3831,10.4196,0.3165,0.4713,9.7901,2.4589,-0.6072,1.8363,0.1065,-0.3503,0.1767,150.0,2.94,1.25,-55.0,307.29,-2.75,-1.85,5.0,41.451,55.753143,48.743607,212.6,191.0336761,,23.491,,0 / 23,271513,2017-11-09 18:57:57:970
-0.8523,1.3503,6.4165,0.4691,1.0259,9.7415,-1.7268,0.822,-3.4875,-0.082,0.1373,-0.1629,135.0,7.44,3.06,-53.06,304.43,-5.89,-3.0,5.0,42.458,55.753143,48.743607,212.6,191.0336761,,23.491,,0 / 23,272013,2017-11-09 18:57:58:470
0.4693,0.3639,9.7971,0.5543,0.6574,9.7688,0.1487,-0.1901,0.535,-0.033,-0.0373,0.2928,144.0,7.63,0.44,-53.25,287.82,-3.85,-3.22,5.0,41.185,55.753143,48.743607,212.6,191.0336761,,23.491,,0 / 23,272513,2017-11-09 18:57:58:970
0.5555,0.5267,9.5481,0.6072,0.5507,9.7723,0.2603,-0.1417,-0.0659,0.0106,0.0458,-0.0138,153.0,7.94,-2.0,-53.0,280.05,-3.22,-3.54,5.0,55.802,55.753143,48.743607,212.6,191.0336761,,23.491,,0 / 23,273014,2017-11-09 18:57:59:471
0.5842,0.1532,10.3142,0.6083,0.4537,9.7772,0.0302,-0.3535,0.1247,0.0128,0.0117,-0.2193,156.0,5.31,0.44,-53.12,286.65,-2.7,-3.58,5.0,40.723,55.753143,48.743607,212.6,191.0336761,,23.491,,0 / 23,273514,2017-11-09 18:57:59:971
0.68,0.2586,9.4427,0.574,0.4784,9.7781,0.108,-0.127,-0.3272,-0.0053,-0.0043,-0.1831,159.0,4.0,-1.31,-53.0,282.48,-2.8,-3.36,5.0,40.775,55.753143,48.743607,212.6,191.0336761,,23.491,,0 / 23,274014,2017-11-09 18:58:00:471
0.8619,0.0,9.8162,0.5264,0.5497,9.777,0.2829,-0.6149,0.2231,0.0021,-0.0106,-0.0777,240.0,2.75,-3.31,-53.37,280.26,-3.26,-3.04,5.0,42.439,55.753143,48.743607,212.6,191.0336761,,23.491,,0 / 23,274514,2017-11-09 18:58:00:971
0.7566,0.2011,9.3565,0.5298,0.647,9.7709,0.2108,-0.4436,-0.4673,-0.0043,-0.0106,0.016,261.0,0.56,-5.31,-54.0,249.29,-3.73,-3.1,5.0,49.016,55.753143,48.743607,212.6,191.0336761,,23.491,,0 / 23,275014,2017-11-09 18:58:01:471
0.8811,0.3543,9.5577,0.6524,0.7645,9.755,0.4436,-0.6609,-0.0574,-0.0021,0.0149,0.0756,249.0,-0.25,-6.0,-54.62,245.61,-4.51,-3.83,5.0,44.445,55.753143,48.743607,212.6,191.0336761,,23.491,,0 / 23,275513,2017-11-09 18:58:01:970
0.3543,0.0766,9.9503,0.7406,0.9229,9.7349,0.2949,-0.5846,-0.029,-0.0511,0.0351,0.016,249.0,-1.06,-9.44,-53.19,217.68,-5.43,-4.22,5.0,44.167,55.753143,48.743607,212.6,191.0336761,,23.491,,0 / 23,276013,2017-11-09 18:58:02:470
0.6321,0.3543,9.7779,0.8881,1.1436,9.6991,-0.0691,-0.9438,0.5855,0.0532,0.017,0.0128,243.0,-1.44,-11.0,-53.81,220.23,-6.7,-5.23,5.0,48.103,55.753143,48.743607,212.6,191.0336761,,23.491,,0 / 23,276513,2017-11-09 18:58:02:970
0.4693,0.8906,9.1075,1.0006,1.4031,9.654,-0.192,-1.0967,0.6113,0.1043,0.0532,0.0,192.0,-2.19,-13.62,-52.31,214.28,-8.41,-5.81,5.0,51.321,55.753143,48.743607,212.6,191.0336761,,23.491,,0 / 23,277013,2017-11-09 18:58:03:470
0.6416,0.1437,9.6055,1.1567,1.6487,9.5975,-0.7706,-1.3731,-0.0184,-0.0256,-0.0554,-0.0649,312.0,-1.37,-16.06,-51.25,213.37,-9.32,-6.73,5.0,44.288,55.753143,48.743607,212.6,191.0336761,,23.491,,0 / 23,277514,2017-11-09 18:58:03:971
0.7087,0.4884,9.4044,1.3004,1.6928,9.5714,-0.5228,-1.7901,0.2922,0.0021,-0.0234,-0.0564,318.0,-0.5,-18.75,-49.94,215.23,-10.24,-7.73,5.0,44.24,55.753143,48.743607,212.6,191.0336761,,23.491,,0 / 23,278014,2017-11-09 18:58:04:471
1.1205,0.8428,9.1075,1.4432,1.8484,9.5221,-0.3791,-1.893,0.1005,0.0266,0.0202,0.1278,315.0,-0.25,-19.25,-49.56,212.94,-10.74,-8.47,5.0,42.73,55.753143,48.743607,212.6,191.0336761,,23.491,,0 / 23,278514,2017-11-09 18:58:04:971
1.0822,0.4118,9.6151,1.566,1.7069,9.5291,-0.4956,-1.3139,0.0308,-0.0138,-0.0319,0.0692,312.0,-0.06,-20.5,-47.56,214.97,-10.31,-9.39,5.0,47.642,55.753143,48.743607,212.6,191.0336761,,23.491,,0 / 23,279014,2017-11-09 18:58:05:471
0.6512,0.067,9.9695,1.6277,1.6455,9.5295,-0.6949,-1.3894,0.7364,0.0128,0.0075,-0.0064,312.0,-0.31,-20.19,-45.31,210.44,-9.75,-9.57,5.0,47.399,55.753143,48.743607,212.6,191.0336761,,23.491,,0 / 23,279514,2017-11-09 18:58:05:971
0.2969,0.4405,9.6438,1.6553,1.5726,9.5371,-1.2522,-1.3946,0.111,-0.016,-0.0309,-0.0798,312.0,1.19,-20.31,-43.81,213.04,-9.06,-9.73,5.0,46.543,55.753143,48.743607,212.6,191.0336761,,23.491,,0 / 23,280014,2017-11-09 18:58:06:471
1.2163,-0.067,10.4196,1.6262,1.361,9.5746,-1.1015,-0.8492,-0.5522,-0.0266,-0.0564,-0.0713,312.0,1.56,-19.75,-40.87,212.14,-8.14,-9.69,5.0,42.02,55.753143,48.743607,212.6,191.0336761,,23.491,,0 / 23,280514,2017-11-09 18:58:06:971
0.6895,0.4118,10.0556,1.5167,1.1222,9.6234,-0.5354,-0.6594,-0.2287,-0.0202,-0.0053,0.0522,312.0,2.88,-19.44,-38.56,211.89,-6.57,-8.96,5.0,41.451,55.753143,48.743607,212.6,191.0336761,,23.491,,0 / 23,281014,2017-11-09 18:58:07:471
0.565,-0.0766,9.8067,1.4206,0.8688,9.6642,-0.5162,-0.6368,0.155,0.0298,0.017,0.1235,309.0,1.5,-18.0,-37.06,207.64,-5.3,-8.48,5.0,42.199,55.753143,48.743607,212.6,191.0336761,,23.491,,0 / 23,281514,2017-11-09 18:58:07:971
0.6416,-0.1628,10.5153,1.2429,0.6687,9.7045,-0.3963,-0.5742,-0.018,0.0724,0.0032,0.0767,306.0,1.81,-17.0,-35.44,203.75,-3.91,-7.3,5.0,43.309,55.753143,48.743607,212.6,191.0336761,,23.491,,0 / 23,282014,2017-11-09 18:58:08:471
-0.4405,0.4788,10.2759,0.8528,0.8554,9.7319,-1.1797,-0.2515,0.5149,0.0234,0.0383,-0.1107,324.0,1.69,-15.87,-33.81,197.55,-4.92,-5.28,5.0,41.435,55.753143,48.743607,212.6,191.0336761,,23.491,,0 / 23,282514,2017-11-09 18:58:08:971
0.5746,0.0,10.1706,1.0756,0.7458,9.7189,-0.5357,-0.466,0.4644,-0.0649,-0.0234,-0.0894,324.0,-0.25,-14.31,-32.75,197.09,-4.39,-6.12,5.0,43.263,55.753143,48.743607,212.6,191.0336761,,23.491,,0 / 23,283014,2017-11-09 18:58:09:471
0.6225,0.1149,10.0461,1.2047,0.5825,9.7149,-0.6163,-0.4845,0.2788,-0.0138,-0.0106,0.1565,312.0,-2.81,-12.19,-30.94,189.54,-3.57,-7.12,5.0,43.584,55.753143,48.743607,212.6,191.0336761,,23.491,,0 / 23,283513,2017-11-09 18:58:09:970
0.8619,0.9385,9.2129,1.3431,0.4288,9.7047,-1.0757,-0.6272,1.9528,-0.0096,0.0341,0.1491,303.0,-5.06,-12.19,-28.94,174.3,-2.77,-7.73,5.0,46.269,55.753143,48.743607,212.6,191.0336761,,23.491,,0 / 23,284013,2017-11-09 18:58:10:470
0.9481,0.4693,9.7588,1.3731,0.3779,9.7026,-0.5691,-0.2551,0.3957,0.0245,0.0405,-0.0373,300.0,-6.56,-10.62,-28.37,168.72,-2.13,-8.13,5.0,43.932,55.753143,48.743607,212.6,191.0336761,,23.491,,0 / 23,284514,2017-11-09 18:58:10:971
0.6895,0.3256,10.161,1.515,0.3001,9.6842,-0.8856,-0.1939,0.0905,-0.0415,-0.0234,-0.0958,303.0,-7.81,-10.19,-27.5,157.28,-1.73,-8.68,5.0,42.342,55.753143,48.743607,212.6,191.0336761,,23.491,,0 / 23,285014,2017-11-09 18:58:11:471
0.7949,0.2586,9.8737,1.6684,0.1876,9.6618,-0.9124,-0.0807,0.0542,0.0085,-0.0106,-0.0426,300.0,-8.87,-11.69,-25.94,154.85,-1.21,-9.84,5.0,42.462,55.753143,48.743607,212.6,191.0336761,,23.491,,0 / 23,285514,2017-11-09 18:58:11:971
0.5842,0.431,9.4619,1.6771,0.0259,9.6621,-0.7329,0.0838,0.3674,0.0319,0.0,-0.0224,300.0,-11.87,-9.94,-23.5,141.83,-0.1,-10.0,5.0,41.937,55.753143,48.743607,212.6,191.0336761,,23.491,,0 / 23,286013,2017-11-09 18:58:12:470
0.4501,0.2873,10.1514,1.5515,-0.1044,9.6825,-1.1917,0.433,0.322,0.0341,0.016,0.0437,297.0,-13.94,-10.25,-23.25,138.37,0.75,-9.37,5.0,42.113,55.753143,48.743607,212.6,191.0336761,,23.491,,0 / 23,286513,2017-11-09 18:58:12:970
0.6512,0.5171,9.4236,1.3428,-0.1387,9.7132,-0.7148,0.7887,-0.5114,-0.0852,0.0021,0.0586,294.0,-15.37,-10.44,-22.44,131.84,0.92,-8.09,5.0,42.671,55.753143,48.743607,212.6,191.0336761,,23.491,,0 / 23,287014,2017-11-09 18:58:13:471
0.6704,0.431,9.5481,1.1148,-0.0228,9.743,-0.5873,0.2912,0.0812,0.0117,-0.0234,-0.05,291.0,-16.69,-10.75,-22.25,127.7,0.27,-6.56,5.0,43.35,55.753143,48.743607,212.6,191.0336761,,23.491,,0 / 23,287513,2017-11-09 18:58:13:970
0.6895,0.3926,9.9311,0.9917,0.1104,9.7557,-0.1366,0.1282,0.0572,0.0,0.016,-0.0458,288.0,-16.12,-12.5,-21.94,128.52,-0.64,-5.89,5.0,45.964,55.753143,48.743607,212.6,191.0336761,,23.491,,0 / 23,288014,2017-11-09 18:58:14:471
0.6033,0.8715,9.5577,0.813,0.2279,9.7702,-0.2145,0.1246,-0.1721,0.0309,-0.0085,0.016,285.0,-15.87,-13.06,-20.81,129.46,-1.28,-4.79,5.0,44.669,55.753143,48.743607,212.6,191.0336761,,23.491,,0 / 23,288514,2017-11-09 18:58:14:971
0.8811,0.1149,9.8833,0.6947,0.3065,9.7772,0.1728,-0.1976,0.0462,0.0213,0.0405,-0.1491,270.0,-16.0,-14.06,-20.87,134.74,-1.74,-4.13,5.0,42.269,55.753143,48.743607,212.6,191.0336761,,23.491,,0 / 23,289014,2017-11-09 18:58:15:471
0.6129,0.3256,9.9695,0.707,0.3201,9.7758,-0.0635,-0.0865,0.4103,0.0043,-0.0341,-0.2438,255.0,-14.37,-15.44,-21.12,138.88,-1.9,-4.13,5.0,40.417,55.753143,48.743607,212.6,191.0336761,,23.491,,0 / 23,289514,2017-11-09 18:58:15:971
0.3448,0.4693,10.0461,0.7312,0.3035,9.7746,-0.1919,-0.1122,-0.0301,-0.0309,0.0181,-0.3013,267.0,-11.62,-18.0,-21.56,147.79,-1.7,-4.4,5.0,42.523,55.753143,48.743607,212.6,191.0336761,,23.491,,0 / 23,290014,2017-11-09 18:58:16:471
0.3352,0.1628,9.5002,0.8149,0.2782,9.7687,0.02,-0.0508,0.2807,-0.0405,-0.0064,-0.3492,264.0,-11.25,-17.75,-20.87,152.09,-1.65,-4.81,5.0,59.013,55.753143,48.743607,212.6,191.0336761,,23.491,,0 / 23,290513,2017-11-09 18:58:16:970
1.1779,-0.2011,11.0133,0.8474,0.3028,9.7652,0.6778,-0.2358,0.8132,0.0383,-0.0532,-0.2651,207.0,-9.56,-19.31,-21.5,158.43,-1.97,-4.8,5.0,44.884,55.753143,48.743607,212.6,191.0336761,,23.491,,0 / 23,291013,2017-11-09 18:58:17:470
0.4405,0.2969,9.8162,0.8884,0.3751,9.7591,0.1052,-0.2449,0.4566,-0.066,-0.0341,-0.3407,159.0,-7.19,-20.25,-20.25,168.05,-2.16,-5.24,5.0,63.413,55.753143,48.743607,212.6,191.0336761,,23.491,,0 / 23,291514,2017-11-09 18:58:17:971
0.9768,0.3926,9.8928,0.8254,0.4318,9.7622,-0.517,-0.055,-0.2916,-0.0958,-0.0043,-0.363,150.0,-2.62,-20.62,-19.81,176.4,-2.58,-4.95,5.0,61.354,55.753143,48.743607,212.6,191.0336761,,23.491,,0 / 23,292013,2017-11-09 18:58:18:470
0.5363,0.498,9.9599,0.8074,0.414,9.7645,-0.0648,-0.0173,0.2157,0.0224,-0.0032,-0.3503,87.0,1.38,-21.19,-21.56,187.33,-2.47,-4.68,5.0,49.176,55.753143,48.743607,212.6,191.0336761,,23.491,,0 / 23,292514,2017-11-09 18:58:18:971
0.8619,0.0096,9.912,0.7102,0.3755,9.7736,-0.3609,-0.348,0.3439,-0.0075,0.0266,-0.164,75.0,3.94,-19.81,-21.25,196.18,-2.33,-4.27,5.0,46.038,55.753143,48.743607,212.6,191.0336761,,23.491,,0 / 23,293013,2017-11-09 18:58:19:470
0.5363,0.9002,9.2416,0.6712,0.3923,9.7757,0.1347,0.4604,-0.2274,0.0181,-0.0735,-0.0862,42.0,6.38,-18.56,-21.69,202.22,-2.13,-3.76,5.0,41.538,55.753143,48.743607,212.6,191.0336761,,23.491,,0 / 23,293514,2017-11-09 18:58:19:971
-0.2969,0.1532,10.9271,0.6789,0.4917,9.7707,-1.8387,-0.5624,1.3999,0.3162,-0.4897,0.2576,43.0,5.19,-19.69,-23.12,199.52,-3.08,-4.15,5.0,40.568,55.753143,48.743607,212.6,191.0336761,,23.491,,0 / 23,294013,2017-11-09 18:58:20:470
0.498,0.68,10.3238,0.0323,0.8683,9.768,0.595,-0.0982,0.6535,-0.3002,0.2087,-0.3162,84.0,7.19,-19.62,-20.12,201.81,-5.45,-0.6,5.0,42.005,55.753143,48.743607,212.6,191.0336761,,23.491,,0 / 23,294513,2017-11-09 18:58:20:970
1.1684,-0.0479,10.1035,0.5411,0.0835,9.7913,0.8222,0.08,-0.0296,-0.0117,-0.3386,-0.0213,120.0,7.63,-18.19,-18.94,204.99,-0.63,-2.32,5.0,39.797,55.753143,48.743607,212.6,191.0336761,,23.491,,0 / 23,295014,2017-11-09 18:58:21:471
0.6991,0.2969,9.6055,0.6517,0.2387,9.782,0.1071,0.2413,-0.125,0.0383,0.0064,0.1948,117.0,6.63,-18.94,-18.81,203.92,-1.33,-3.77,5.0,45.428,55.753143,48.743607,212.6,191.0336761,,23.491,,0 / 23,295514,2017-11-09 18:58:21:971
1.6281,0.0,10.4579,0.7692,0.3065,9.7716,0.8742,-0.3081,0.395,-0.0724,-0.1033,-0.1086,123.0,7.81,-18.5,-18.87,203.64,-1.97,-3.15,5.0,43.918,55.753143,48.743607,212.6,191.0336761,,23.491,,0 / 23,296014,2017-11-09 18:58:22:471
0.2969,0.2777,10.0556,0.622,0.2836,9.7827,-0.0271,0.1071,-0.3222,0.0405,-0.0479,0.1033,141.0,7.63,-18.5,-18.56,207.78,-1.62,-3.68,5.0,42.063,55.753143,48.743607,212.6,191.0336761,,23.491,,0 / 23,296513,2017-11-09 18:58:22:970
0.68,0.1341,9.596,0.6031,0.2786,9.7841,0.1561,-0.1705,-0.1764,0.0405,0.0341,0.1416,171.0,6.75,-19.12,-18.19,203.7,-1.7,-3.57,5.0,41.486,55.753143,48.743607,212.6,191.0336761,,23.491,,0 / 23,297014,2017-11-09 18:58:23:471
1.0822,-0.2107,10.5249,0.5136,0.2433,9.7901,0.1995,-0.4408,1.0432,0.066,-0.0575,0.3833,324.0,5.63,-19.31,-17.81,200.42,-1.48,-2.9,5.0,40.706,55.753143,48.743607,212.6,191.0336761,,23.491,,0 / 23,297514,2017-11-09 18:58:23:971
0.3543,0.5267,9.2799,0.5175,0.3197,9.7877,0.3185,-0.1569,-0.0916,-0.0117,-0.0224,-0.0628,339.0,3.75,-20.69,-17.87,194.28,-1.93,-3.0,5.0,42.493,55.753143,48.743607,212.6,191.0336761,,23.491,,0 / 23,298014,2017-11-09 18:58:24:471
0.5746,0.2011,9.9982,0.5755,0.3144,9.7846,-0.0029,-0.024,-0.2454,-0.0341,0.0522,-0.2502,342.0,3.38,-19.69,-16.81,191.6,-1.84,-3.37,5.0,42.123,55.753143,48.743607,212.6,191.0336761,,23.491,,0 / 23,298514,2017-11-09 18:58:24:971
0.5267,0.4022,9.7683,0.6015,0.3319,9.7825,-0.1144,-0.0689,0.0015,-0.0075,0.0117,-0.2917,351.0,5.38,-19.25,-16.25,199.06,-1.94,-3.47,5.0,38.557,55.753143,48.743607,212.6,191.0336761,,23.491,,0 / 23,299014,2017-11-09 18:58:25:471
0.5363,0.3448,9.8737,0.5913,0.4331,9.7792,-0.1227,0.1807,-0.4265,-0.0245,-0.0319,-0.2289,354.0,6.94,-17.75,-16.06,204.69,-2.53,-3.46,5.0,39.459,55.753143,48.743607,212.6,191.0336761,,23.491,,0 / 23,299514,2017-11-09 18:58:25:971
0.5842,0.0575,9.912,0.5782,0.379,9.7822,0.0914,-0.2218,0.1099,0.0735,0.0192,0.0149,360.0,7.44,-17.62,-15.69,208.55,-2.23,-3.32,5.0,41.586,55.753143,48.743607,212.6,191.0336761,,23.491,,0 / 23,300014,2017-11-09 18:58:26:471
0.5746,0.1532,10.0078,0.5244,0.348,9.7864,0.196,0.0075,-0.0018,0.0543,-0.0447,0.1299,369.0,7.06,-17.62,-15.69,204.25,-2.04,-3.09,5.0,41.325,55.753143,48.743607,212.6,191.0336761,,23.491,,0 / 23,300514,2017-11-09 18:58:26:971
0.2394,0.0096,10.2089,0.5493,0.3133,9.7862,-0.513,-0.1776,0.2626,-0.0277,-0.0309,-0.0479,372.0,6.0,-17.75,-15.25,202.74,-1.95,-3.25,5.0,42.014,55.753143,48.743607,212.6,191.0336761,,23.491,,0 / 23,301014,2017-11-09 18:58:27:471
0.2298,0.5746,9.3661,0.6129,0.3374,9.7816,-0.2631,0.102,-0.527,0.0128,0.0437,-0.0373,372.0,5.25,-18.25,-14.87,198.78,-1.94,-3.66,5.0,41.317,55.753143,48.743607,212.6,191.0336761,,23.491,,0 / 23,301513,2017-11-09 18:58:27:970
0.2011,0.1628,9.8162,0.56,0.3562,9.7841,-0.1707,0.191,-0.0981,0.0277,0.0564,-0.0032,378.0,5.0,-17.5,-14.87,201.45,-2.14,-3.3,5.0,40.82,55.753143,48.743607,212.6,191.0336761,,23.491,,0 / 23,302014,2017-11-09 18:58:28:471
0.8906,0.5842,9.0884,0.5731,0.3448,9.7838,-0.1084,0.1914,-0.109,-0.0362,0.017,-0.016,384.0,5.06,-17.56,-14.06,198.28,-2.05,-3.23,5.0,42.264,55.753143,48.743607,212.6,191.0336761,,23.491,,0 / 23,302514,2017-11-09 18:58:28:971
0.4597,0.2682,9.1842,0.6003,0.297,9.7837,-0.1339,-0.0943,0.1868,0.0128,-0.0032,0.0341,387.0,5.25,-18.0,-14.0,198.08,-1.76,-3.33,5.0,42.504,55.753143,48.743607,212.6,191.0336761,,23.491,,0 / 23,303013,2017-11-09 18:58:29:470
0.9768,0.2682,9.6726,0.6843,0.3219,9.7774,0.2436,0.1666,-0.1011,-0.0149,0.0032,-0.0351,390.0,3.88,-17.25,-13.19,196.46,-1.88,-4.0,5.0,41.399,55.753143,48.743607,212.6,191.0336761,,23.491,,0 / 23,303514,2017-11-09 18:58:29:971
0.9098,0.3543,9.3757,0.7266,0.31,9.7747,0.1753,-0.1134,-0.0189,-0.0628,0.0607,0.0362,390.0,3.81,-16.75,-11.87,193.4,-1.85,-4.23,5.0,41.19,55.753143,48.743607,212.6,191.0336761,,23.491,,0 / 23,304014,2017-11-09 18:58:30:471
0.4022,0.3831,9.9407,0.6982,0.328,9.7762,-0.0142,-0.3288,0.6841,0.1011,0.017,-0.0085,396.0,3.5,-17.56,-11.69,195.39,-1.92,-4.09,5.0,41.56,55.753143,48.743607,212.6,191.0336761,,23.491,,0 / 23,304514,2017-11-09 18:58:30:971
0.5267,0.0192,10.5058,0.6257,0.3029,9.7819,-0.1191,-0.177,-0.3704,0.0447,0.0,-0.0649,402.0,4.0,-15.87,-10.87,196.55,-1.73,-3.45,5.0,41.826,55.753143,48.743607,212.6,191.0336761,,23.491,,0 / 23,305014,2017-11-09 18:58:31:471
0.6416,-0.316,11.2049,0.6202,0.2832,9.7829,0.2492,-0.5004,0.2856,-0.115,-0.0319,-0.0181,405.0,3.69,-16.37,-10.25,195.46,-1.62,-3.62,5.0,42.48,55.753143,48.743607,212.6,191.0336761,,23.491,,0 / 23,305513,2017-11-09 18:58:31:970
0.7757,-0.0096,10.6015,0.6348,0.3187,9.7808,0.1777,0.2766,-0.3792,0.0841,0.0362,0.0202,408.0,3.94,-15.31,-9.31,197.28,-1.86,-3.71,5.0,41.737,55.753143,48.743607,212.6,191.0336761,,23.491,,0 / 23,306013,2017-11-09 18:58:32:470
0.7087,0.2586,9.6822,0.6454,0.3134,9.7803,0.1749,-0.1385,0.2489,0.0681,0.066,0.0383,408.0,4.5,-14.25,-9.19,202.11,-1.82,-3.73,5.0,40.374,55.753143,48.743607,212.6,191.0336761,,23.491,,0 / 23,306514,2017-11-09 18:58:32:971
0.6225,0.3639,9.8354,0.5485,0.3128,9.7862,0.1644,-0.4224,-0.1296,-0.0021,0.0213,-0.0447,414.0,4.44,-14.12,-8.5,197.91,-1.83,-3.21,5.0,40.807,55.753143,48.743607,212.6,191.0336761,,23.491,,0 / 23,307014,2017-11-09 18:58:33:471
0.6225,-0.0862,10.3717,0.5778,0.3418,9.7836,-0.2377,0.1564,0.1966,-0.0309,0.0394,0.0256,417.0,3.38,-13.25,-7.62,194.21,-1.83,-3.48,5.0,42.25,55.753143,48.743607,212.6,191.0336761,,23.491,,0 / 23,307514,2017-11-09 18:58:33:971
0.7661,-0.0479,10.0078,0.573,0.3434,9.7838,0.2579,-0.4041,-0.0291,0.0745,0.0043,-0.0777,420.0,3.94,-11.62,-7.87,200.84,-2.01,-3.35,5.0,42.28,55.753143,48.743607,212.6,191.0336761,,23.491,,0 / 23,308014,2017-11-09 18:58:34:471
0.4501,0.3831,9.4332,0.6162,0.3512,9.7809,-0.3743,-0.412,0.0718,0.0277,0.0149,-0.0181,420.0,3.94,-11.31,-8.37,205.48,-2.05,-3.67,5.0,41.746,55.753143,48.743607,212.6,191.0336761,,23.491,,0 / 23,308514,2017-11-09 18:58:34:971
0.5746,0.565,9.098,0.6118,0.3631,9.7808,-0.0273,-0.113,-0.0259,-0.0735,-0.016,0.0788,420.0,3.63,-11.37,-7.62,202.76,-2.12,-3.58,5.0,40.443,55.753143,48.743607,212.6,191.0336761,,23.491,,0 / 23,309013,2017-11-09 18:58:35:470
0.8619,0.4405,9.0118,0.6127,0.3728,9.7803,0.194,-0.1651,0.7095,-0.0192,0.0096,0.0064,426.0,4.63,-9.25,-8.19,207.35,-2.13,-3.66,5.0,42.002,55.753143,48.743607,212.6,191.0336761,,23.491,,0 / 23,309513,2017-11-09 18:58:35:970
0.929,0.2969,10.3142,0.5695,0.3724,9.783,-0.1323,0.3603,-0.4791,-0.0202,0.0298,-0.0011,432.0,4.31,-10.06,-10.0,203.05,-2.27,-3.42,5.0,42.029,55.753143,48.743607,212.6,191.0336761,,23.491,,0 / 23,310014,2017-11-09 18:58:36:471
0.5842,0.1437,9.8258,0.6179,0.3365,9.7813,-0.2183,-0.2503,0.3567,0.0202,0.0415,0.0628,435.0,3.0,-8.5,-9.44,204.9,-2.08,-3.62,5.0,42.626,55.753143,48.743607,212.6,191.0336761,,23.491,,0 / 23,310514,2017-11-09 18:58:36:971
0.6321,0.1915,9.73,0.6893,0.3133,9.7773,-0.0307,0.0447,-0.1209,-0.0138,-0.0192,-0.0192,432.0,4.06,-7.94,-11.0,211.81,-1.92,-3.89,5.0,41.68,55.753143,48.743607,212.6,191.0336761,,23.491,,0 / 23,311013,2017-11-09 18:58:37:470
0.3065,0.1053,10.5058,0.6221,0.3234,9.7815,-0.3411,0.2378,-0.105,0.049,0.0149,-0.0224,438.0,3.88,-8.44,-10.56,211.54,-1.89,-3.64,5.0,40.014,55.753143,48.743607,212.6,191.0336761,,23.491,,0 / 23,311514,2017-11-09 18:58:37:971
0.2203,0.3065,10.0748,0.5654,0.3169,9.7852,0.0199,0.0932,-0.0599,-0.0064,0.0415,0.0032,441.0,3.88,-8.44,-10.31,211.24,-1.8,-3.4,5.0,45.246,55.753143,48.743607,212.6,191.0336761,,23.491,,0 / 23,312013,2017-11-09 18:58:38:470
0.5076,-0.1149,9.912,0.5416,0.3165,9.7865,-0.1961,-0.4148,0.4684,0.0351,-0.0394,0.016,447.0,4.13,-8.5,-11.75,211.5,-1.92,-3.17,5.0,43.007,55.753143,48.743607,212.6,191.0336761,,23.491,,0 / 23,312514,2017-11-09 18:58:38:971
0.431,0.2969,9.9503,0.5981,0.3065,9.7835,0.2496,-0.0542,-0.2346,-0.0511,0.0181,0.0202,450.0,3.56,-9.44,-11.69,208.25,-1.86,-3.4,5.0,43.877,55.753143,48.743607,212.6,191.0336761,,23.491,,0 / 23,313014,2017-11-09 18:58:39:471
0.6704,0.3352,10.1323,0.6358,0.2936,9.7816,0.3372,0.2529,-0.7526,0.0341,-0.0138,-0.0106,450.0,3.38,-7.69,-12.0,206.27,-1.72,-3.72,5.0,43.226,55.753143,48.743607,212.6,191.0336761,,23.491,,0 / 23,313514,2017-11-09 18:58:39:971
0.2682,0.3735,10.2568,0.6006,0.3636,9.7814,-0.0255,-0.1837,-0.0192,0.0362,-0.0202,0.0607,453.0,4.06,-8.75,-12.81,211.95,-2.0,-3.53,5.0,41.07,55.753143,48.743607,212.6,191.0336761,,23.491,,0 / 23,314014,2017-11-09 18:58:40:471
0.8236,0.5459,9.5098,0.6121,0.3378,9.7816,-0.1839,0.1801,0.3162,-0.0298,0.0053,-0.017,453.0,3.44,-9.56,-12.5,201.33,-1.97,-3.58,5.0,42.259,55.753143,48.743607,212.6,191.0336761,,23.491,,0 / 23,314514,2017-11-09 18:58:40:971
0.1341,0.3926,9.9311,0.5839,0.3427,9.7832,-0.5116,0.2936,-0.2051,0.0298,0.0085,-0.2033,450.0,3.69,-8.81,-12.25,208.85,-1.96,-3.54,5.0,51.854,55.753143,48.743607,212.6,191.0336761,,23.491,,0 / 23,315013,2017-11-09 18:58:41:470
0.7566,-0.0479,10.4866,0.5929,0.3426,9.7827,-0.0763,-0.3738,-0.0672,-0.0948,-0.0649,-0.3205,462.0,4.44,-8.31,-12.62,212.33,-2.0,-3.47,5.0,40.279,55.753143,48.743607,212.6,191.0336761,,23.491,,0 / 23,315514,2017-11-09 18:58:41:971
0.6416,-0.1245,10.0748,0.6343,0.3507,9.7798,0.1272,-0.4604,0.3671,-0.0053,-0.0096,-0.4748,468.0,5.13,-7.06,-12.5,215.96,-2.03,-3.74,5.0,43.517,55.753143,48.743607,212.6,191.0336761,,23.491,,0 / 23,316014,2017-11-09 18:58:42:471
1.2546,0.5459,9.5385,0.5853,0.4872,9.777,0.3823,0.1868,0.0267,-0.017,-0.0266,-0.2885,474.0,5.13,-6.56,-12.75,222.2,-2.85,-3.43,5.0,43.768,55.753143,48.743607,212.6,191.0336761,,23.491,,0 / 23,316513,2017-11-09 18:58:42:970
0.3735,0.3639,9.73,0.6033,0.3749,9.7808,-0.2248,-0.0151,-0.1051,-0.0277,0.0011,-0.3982,474.0,6.31,-4.94,-13.31,239.88,-2.25,-3.42,5.0,43.045,55.753143,48.743607,212.6,191.0336761,,23.491,,0 / 23,317013,2017-11-09 18:58:43:470
0.3735,0.4214,9.7109,0.6251,0.3459,9.7805,0.0605,0.2767,0.0623,-0.0149,-0.0522,-0.2864,468.0,7.31,-3.37,-13.19,252.06,-1.9,-3.63,5.0,42.322,55.753143,48.743607,212.6,191.0336761,,23.491,,0 / 23,317514,2017-11-09 18:58:43:971
0.5171,0.565,9.5289,0.6902,0.2884,9.778,-0.339,0.4289,-0.2691,-0.0671,-0.0234,-0.3226,450.0,7.56,-0.81,-13.94,266.14,-1.69,-4.04,5.0,47.864,55.753143,48.743607,212.6,191.0336761,,23.491,,0 / 23,318014,2017-11-09 18:58:44:471
0.7566,0.6512,9.1746,0.7336,0.2492,9.7759,0.096,-0.2506,0.7436,0.0181,-0.0117,-0.3109,432.0,6.94,-0.06,-14.94,272.67,-1.51,-4.38,5.0,49.357,55.753143,48.743607,212.6,191.0336761,,23.491,,0 / 23,318513,2017-11-09 18:58:44:970
2.1356,0.4693,6.7229,1.4905,-0.2576,9.6892,-0.0124,0.0861,-2.0592,0.4024,-0.0777,0.3961,420.0,3.81,1.81,-16.31,291.0,0.73,-8.53,5.0,46.864,55.753143,48.743607,212.6,191.0336761,,23.491,,0 / 23,319013,2017-11-09 18:58:45:470
1.7621,-0.0862,9.7683,1.5694,-0.1624,9.6788,-0.0676,-0.0622,-0.1785,0.0043,0.0564,-0.2119,447.0,4.44,2.69,-17.12,292.28,0.95,-9.21,5.0,40.423,55.753143,48.743607,212.6,191.0336761,,23.491,,0 / 23,319514,2017-11-09 18:58:45:971
2.0686,-1.5131,11.4347,1.5419,-0.1036,9.6841,0.5621,-1.1841,0.9138,-0.0458,-0.016,-0.3418,411.0,3.06,3.75,-18.56,303.39,0.44,-9.3,5.0,52.182,55.753143,48.743607,212.6,191.0336761,,23.491,,0 / 23,320014,2017-11-09 18:58:46:471
0.7183,-0.1628,8.6766,1.5213,0.106,9.6873,-0.771,-0.2151,-1.0438,0.148,-0.0468,0.1544,357.0,3.25,2.5,-19.06,298.41,-0.62,-8.92,5.0,51.629,55.753143,48.743607,212.6,191.0336761,,23.491,,0 / 23,320514,2017-11-09 18:58:46:971